{
  "resourceType": "Bundle",
  "id": "CaresSubmitLaborderBundleExample",
  "type": "transaction",
  "entry": [
    {
      "fullUrl": "Task/LabOrderTaskExample",
      "resource": {
        "resourceType": "Task",
        "id": "LabOrderTaskExample",
        "text": {
          "status": "generated",
          "div": "<div xmlns=\"http://www.w3.org/1999/xhtml\"><p><b>Generated Narrative: Task</b><a name=\"LabOrderTaskExample\"> </a></p><div style=\"display: inline-block; background-color: #d9e0e7; padding: 6px; margin: 4px; border: 1px solid #8da1b4; border-radius: 5px; line-height: 60%\"><p style=\"margin-bottom: 0px\">Resource Task \"LabOrderTaskExample\" </p></div><p><b>identifier</b>: id: ORDER12345</p><p><b>basedOn</b>: <a href=\"#ServiceRequest_Covid19LabOrderExample\">See above (ServiceRequest/Covid19LabOrderExample)</a></p><p><b>status</b>: requested</p><p><b>intent</b>: order</p><p><b>executionPeriod</b>: 2022-11-09 --&gt; (ongoing)</p><p><b>lastModified</b>: 2015-02-07</p><p><b>requester</b>: <a href=\"Organization-Covid19OrganizationExample.html\">Organization/Covid19OrganizationExample</a> \"Covid19 Organization\"</p><p><b>owner</b>: <a href=\"Organization-Covid19OrganizationExample.html\">Organization/Covid19OrganizationExample</a> \"Covid19 Organization\"</p></div>"
        },
        "identifier": [
          {
            "system": "http://openhie.org/fhir/covid19-casereporting/lab-integration/test-order-number",
            "value": "ORDER12345"
          }
        ],
        "basedOn": [
          {
            "reference": "ServiceRequest/Covid19LabOrderExample"
          }
        ],
        "status": "requested",
        "intent": "order",
        "executionPeriod": {
          "start": "2022-11-09"
        },
        "lastModified": "2015-02-07",
        "requester": {
          "reference": "Organization/Covid19OrganizationExample"
        },
        "owner": {
          "reference": "Organization/Covid19OrganizationExample"
        }
      },
      "request": {
        "method": "PUT",
        "url": "Task/LabOrderTaskExample"
      }
    },
    {
      "fullUrl": "Encounter/Covid19AssessmentEncounterExample",
      "resource": {
        "resourceType": "Encounter",
        "id": "Covid19AssessmentEncounterExample",
        "meta": {
          "profile": [
            "http://openhie.org/fhir/covid19-casereporting/StructureDefinition/covid19-encounter"
          ]
        },
        "text": {
          "status": "extensions",
          "div": "<div xmlns=\"http://www.w3.org/1999/xhtml\"><p><b>Generated Narrative: Encounter</b><a name=\"Covid19AssessmentEncounterExample\"> </a></p><div style=\"display: inline-block; background-color: #d9e0e7; padding: 6px; margin: 4px; border: 1px solid #8da1b4; border-radius: 5px; line-height: 60%\"><p style=\"margin-bottom: 0px\">Resource Encounter \"Covid19AssessmentEncounterExample\" </p><p style=\"margin-bottom: 0px\">Profile: <a href=\"StructureDefinition-covid19-encounter.html\">Covid19 Assessment Encounter</a></p></div><p><b>Covid19 date of next vaccination</b>: 2022-07-28</p><p><b>status</b>: finished</p><p><b>class</b>: short stay (Details: http://terminology.hl7.org/CodeSystem/v3-ActCode code SS = 'short stay', stated as 'null')</p><p><b>subject</b>: <a href=\"#Patient_Covid19PatientExample\">See above (Patient/Covid19PatientExample)</a></p><p><b>period</b>: 2022-07-28 --&gt; 2022-08-15</p><p><b>reasonCode</b>: Person exposed to disease (person) <span style=\"background: LightGoldenRodYellow; margin: 4px; border: 1px solid khaki\"> (<a href=\"https://browser.ihtsdotools.org/\">SNOMED CT</a>#428792000)</span></p></div>"
        },
        "extension": [
          {
            "url": "http://openhie.org/fhir/covid19-casereporting/StructureDefinition/next-visit",
            "valueDateTime": "2022-07-28"
          }
        ],
        "status": "finished",
        "class": {
          "system": "http://terminology.hl7.org/CodeSystem/v3-ActCode",
          "code": "SS"
        },
        "subject": {
          "reference": "Patient/Covid19PatientExample"
        },
        "period": {
          "start": "2022-07-28",
          "end": "2022-08-15"
        },
        "reasonCode": [
          {
            "coding": [
              {
                "system": "http://snomed.info/sct",
                "code": "428792000"
              }
            ]
          }
        ]
      },
      "request": {
        "method": "PUT",
        "url": "Encounter/Covid19AssessmentEncounterExample"
      }
    },
    {
      "fullUrl": "Location/Covid19ServiceRequestLocationExample",
      "resource": {
        "resourceType": "Location",
        "id": "Covid19ServiceRequestLocationExample",
        "meta": {
          "profile": [
            "http://openhie.org/fhir/covid19-casereporting/StructureDefinition/covid19-service-request-location"
          ]
        },
        "text": {
          "status": "generated",
          "div": "<div xmlns=\"http://www.w3.org/1999/xhtml\"><p><b>Generated Narrative: Location</b><a name=\"Covid19ServiceRequestLocationExample\"> </a></p><div style=\"display: inline-block; background-color: #d9e0e7; padding: 6px; margin: 4px; border: 1px solid #8da1b4; border-radius: 5px; line-height: 60%\"><p style=\"margin-bottom: 0px\">Resource Location \"Covid19ServiceRequestLocationExample\" </p><p style=\"margin-bottom: 0px\">Profile: <a href=\"StructureDefinition-covid19-service-request-location.html\">Covid19 Service Request Location</a></p></div><p><b>name</b>: Covid19 Location</p><p><b>address</b>: Cares city 1 Cares state 1 Cares country 1 </p></div>"
        },
        "name": "Covid19 Location",
        "address": {
          "city": "Cares city 1",
          "district": "Cares district 1",
          "state": "Cares state 1",
          "country": "Cares country 1"
        }
      },
      "request": {
        "method": "PUT",
        "url": "Location/Covid19ServiceRequestLocationExample"
      }
    },
    {
      "fullUrl": "ServiceRequest/Covid19LabOrderExample",
      "resource": {
        "resourceType": "ServiceRequest",
        "id": "Covid19LabOrderExample",
        "meta": {
          "profile": [
            "http://openhie.org/fhir/covid19-casereporting/StructureDefinition/covid19-lab-order"
          ]
        },
        "text": {
          "status": "generated",
          "div": "<div xmlns=\"http://www.w3.org/1999/xhtml\"><p><b>Generated Narrative: ServiceRequest</b><a name=\"Covid19LabOrderExample\"> </a></p><div style=\"display: inline-block; background-color: #d9e0e7; padding: 6px; margin: 4px; border: 1px solid #8da1b4; border-radius: 5px; line-height: 60%\"><p style=\"margin-bottom: 0px\">Resource ServiceRequest \"Covid19LabOrderExample\" </p><p style=\"margin-bottom: 0px\">Profile: <a href=\"StructureDefinition-covid19-lab-order.html\">Covid19 Lab Order</a></p></div><p><b>identifier</b>: id: ORDER12345</p><p><b>status</b>: revoked</p><p><b>intent</b>: order</p><p><b>doNotPerform</b>: true</p><p><b>code</b>: 100156-9 <span style=\"background: LightGoldenRodYellow; margin: 4px; border: 1px solid khaki\"> (loinc.org#100156-9)</span></p><p><b>subject</b>: <a href=\"#Patient_Covid19PatientExample\">See above (Patient/Covid19PatientExample)</a></p><p><b>encounter</b>: <a href=\"#Encounter_Covid19AssessmentEncounterExample\">See above (Encounter/Covid19AssessmentEncounterExample)</a></p><p><b>occurrence</b>: 2012-01-05</p><p><b>requester</b>: <a href=\"#Practitioner_PractitionerExample\">See above (Practitioner/PractitionerExample)</a></p><p><b>locationReference</b>: <a href=\"#Location_Covid19ServiceRequestLocationExample\">See above (Location/Covid19ServiceRequestLocationExample)</a></p><p><b>reasonCode</b>: Blood specimen with anticoagulant <span style=\"background: LightGoldenRodYellow; margin: 4px; border: 1px solid khaki\"> (<a href=\"https://browser.ihtsdotools.org/\">SNOMED CT</a>#441510007)</span></p><p><b>specimen</b>: <a href=\"#Specimen_Covid19SpecimenExample\">See above (Specimen/Covid19SpecimenExample)</a></p></div>"
        },
        "identifier": [
          {
            "system": "http://covid19laborder.org/order",
            "value": "ORDER12345"
          }
        ],
        "status": "revoked",
        "intent": "order",
        "doNotPerform": true,
        "code": {
          "coding": [
            {
              "system": "https://loinc.org",
              "code": "100156-9"
            }
          ]
        },
        "subject": {
          "reference": "Patient/Covid19PatientExample"
        },
        "encounter": {
          "reference": "Encounter/Covid19AssessmentEncounterExample"
        },
        "occurrenceDateTime": "2012-01-05",
        "requester": {
          "reference": "Practitioner/PractitionerExample"
        },
        "locationReference": [
          {
            "reference": "Location/Covid19ServiceRequestLocationExample"
          }
        ],
        "reasonCode": [
          {
            "coding": [
              {
                "system": "http://snomed.info/sct",
                "code": "441510007"
              }
            ]
          }
        ],
        "specimen": [
          {
            "reference": "Specimen/Covid19SpecimenExample"
          }
        ]
      },
      "request": {
        "method": "PUT",
        "url": "ServiceRequest/Covid19LabOrderExample"
      }
    },
    {
      "fullUrl": "Practitioner/PractitionerExample",
      "resource": {
        "resourceType": "Practitioner",
        "id": "PractitionerExample",
        "text": {
          "status": "generated",
          "div": "<div xmlns=\"http://www.w3.org/1999/xhtml\"><p><b>Generated Narrative: Practitioner</b><a name=\"PractitionerExample\"> </a></p><div style=\"display: inline-block; background-color: #d9e0e7; padding: 6px; margin: 4px; border: 1px solid #8da1b4; border-radius: 5px; line-height: 60%\"><p style=\"margin-bottom: 0px\">Resource Practitioner \"PractitionerExample\" </p></div><p><b>name</b>: Joe Smith </p><p><b>telecom</b>: ph: 27 53 765 2509</p></div>"
        },
        "name": [
          {
            "family": "Smith",
            "given": [
              "Joe"
            ]
          }
        ],
        "telecom": [
          {
            "system": "phone",
            "value": "27 53 765 2509"
          }
        ]
      },
      "request": {
        "method": "PUT",
        "url": "Practitioner/PractitionerExample"
      }
    },
    {
      "fullUrl": "Patient/Covid19PatientExample",
      "resource": {
        "resourceType": "Patient",
        "id": "Covid19PatientExample",
        "meta": {
          "profile": [
            "http://openhie.org/fhir/covid19-casereporting/StructureDefinition/covid19-patient"
          ]
        },
        "text": {
          "status": "generated",
          "div": "<div xmlns=\"http://www.w3.org/1999/xhtml\"><p><b>Generated Narrative: Patient</b><a name=\"Covid19PatientExample\"> </a></p><div style=\"display: inline-block; background-color: #d9e0e7; padding: 6px; margin: 4px; border: 1px solid #8da1b4; border-radius: 5px; line-height: 60%\"><p style=\"margin-bottom: 0px\">Resource Patient \"Covid19PatientExample\" </p><p style=\"margin-bottom: 0px\">Profile: <a href=\"StructureDefinition-covid19-patient.html\">Covid19 Patient</a></p></div><p><b>identifier</b>: id: PASSPORT1234567, id: NAT1234567, id: EMR1234567</p><p><b>active</b>: true</p><p><b>name</b>: Jane Smith (OFFICIAL)</p><p><b>telecom</b>: <a href=\"tel:+27825556666\">+27825556666</a></p><p><b>gender</b>: female</p><p><b>birthDate</b>: 1986-06-04</p><p><b>address</b>: Cape Town Western Province South Africa </p><p><b>maritalStatus</b>: Divorced <span style=\"background: LightGoldenRodYellow; margin: 4px; border: 1px solid khaki\"> (<a href=\"http://terminology.hl7.org/4.0.0/CodeSystem-v3-MaritalStatus.html\">MaritalStatus</a>#D)</span></p><h3>Contacts</h3><table class=\"grid\"><tr><td>-</td><td><b>Relationship</b></td><td><b>Name</b></td><td><b>Telecom</b></td></tr><tr><td>*</td><td>Next-of-Kin <span style=\"background: LightGoldenRodYellow; margin: 4px; border: 1px solid khaki\"> (<a href=\"http://terminology.hl7.org/4.0.0/CodeSystem-v2-0131.html\">contactRole2</a>#N)</span></td><td>John </td><td><a href=\"tel:+27825556667\">+27825556667</a></td></tr></table><p><b>managingOrganization</b>: <a href=\"Organization-Covid19OrganizationExample.html\">Organization/Covid19OrganizationExample</a> \"Covid19 Organization\"</p></div>"
        },
        "identifier": [
          {
            "system": "http://openhie.org/fhir/covid19-casereporting/identifier/passport",
            "value": "PASSPORT1234567"
          },
          {
            "system": "http://openhie.org/fhir/covid19-casereporting/identifier/nid",
            "value": "NAT1234567"
          },
          {
            "system": "http://openhie.org/fhir/covid19-casereporting/identifier/facility",
            "value": "EMR1234567"
          }
        ],
        "active": true,
        "name": [
          {
            "use": "official",
            "family": "Smith",
            "given": [
              "Jane"
            ]
          }
        ],
        "telecom": [
          {
            "system": "phone",
            "value": "+27825556666"
          }
        ],
        "gender": "female",
        "birthDate": "1986-06-04",
        "address": [
          {
            "city": "Cape Town",
            "district": "City of Cape Town",
            "state": "Western Province",
            "country": "South Africa"
          }
        ],
        "maritalStatus": {
          "coding": [
            {
              "system": "http://terminology.hl7.org/CodeSystem/v3-MaritalStatus",
              "code": "D"
            }
          ]
        },
        "contact": [
          {
            "relationship": [
              {
                "coding": [
                  {
                    "system": "http://terminology.hl7.org/CodeSystem/v2-0131",
                    "code": "N"
                  }
                ]
              }
            ],
            "name": {
              "family": "John"
            },
            "telecom": [
              {
                "system": "phone",
                "value": "+27825556667"
              }
            ]
          }
        ],
        "managingOrganization": {
          "reference": "Organization/Covid19OrganizationExample"
        }
      },
      "request": {
        "method": "PUT",
        "url": "Patient/Covid19PatientExample"
      }
    },
    {
      "fullUrl": "Specimen/Covid19SpecimenExample",
      "resource": {
        "resourceType": "Specimen",
        "id": "Covid19SpecimenExample",
        "meta": {
          "profile": [
            "http://openhie.org/fhir/covid19-casereporting/StructureDefinition/covid19-specimen"
          ]
        },
        "text": {
          "status": "generated",
          "div": "<div xmlns=\"http://www.w3.org/1999/xhtml\"><p><b>Generated Narrative: Specimen</b><a name=\"Covid19SpecimenExample\"> </a></p><div style=\"display: inline-block; background-color: #d9e0e7; padding: 6px; margin: 4px; border: 1px solid #8da1b4; border-radius: 5px; line-height: 60%\"><p style=\"margin-bottom: 0px\">Resource Specimen \"Covid19SpecimenExample\" </p><p style=\"margin-bottom: 0px\">Profile: <a href=\"StructureDefinition-covid19-specimen.html\">Covid19 Specimen</a></p></div><p><b>identifier</b>: id: SPECIMEN109191879</p><p><b>type</b>: Nasopharyngeal swab <span style=\"background: LightGoldenRodYellow; margin: 4px; border: 1px solid khaki\"> (<a href=\"https://browser.ihtsdotools.org/\">SNOMED CT</a>#258500001)</span></p><p><b>subject</b>: <a href=\"#Patient_Covid19PatientExample\">See above (Patient/Covid19PatientExample)</a></p><h3>Collections</h3><table class=\"grid\"><tr><td>-</td><td><b>Collected[x]</b></td></tr><tr><td>*</td><td>2022-07-28</td></tr></table></div>"
        },
        "identifier": [
          {
            "system": "http://covid19laborder.org/specimen",
            "value": "SPECIMEN109191879"
          }
        ],
        "type": {
          "coding": [
            {
              "system": "http://snomed.info/sct",
              "code": "258500001"
            }
          ]
        },
        "subject": {
          "reference": "Patient/Covid19PatientExample"
        },
        "collection": {
          "collectedDateTime": "2022-07-28"
        }
      },
      "request": {
        "method": "PUT",
        "url": "Specimen/Covid19SpecimenExample"
      }
    }
  ]
}