{
  "resourceType": "Bundle",
  "id": "Covid19BundleExample",
  "type": "document",
  "entry": [
    {
      "fullUrl": "Composition/Covid19CompositionExample",
      "resource": {
        "resourceType": "Composition",
        "id": "Covid19CompositionExample",
        "meta": {
          "profile": [
            "http://example.com/fhir/example/StructureDefinition/covid19-composition"
          ]
        },
        "text": {
          "status": "generated",
          "div": "<div xmlns=\"http://www.w3.org/1999/xhtml\"><p><b>Generated Narrative: Composition</b></p><div style=\"display: inline-block; background-color: #d9e0e7; padding: 6px; margin: 4px; border: 1px solid #8da1b4; border-radius: 5px; line-height: 60%\"><p style=\"margin-bottom: 0px\">Resource Composition \"Covid19CompositionExample\" </p><p style=\"margin-bottom: 0px\">Profile: <a href=\"StructureDefinition-covid19-composition.html\">Covid19 Case Reporting Composition</a></p></div><p><b>identifier</b>: id: 1111</p><p><b>status</b>: final</p><p><b>type</b>: COVID-19 case report <span style=\"background: LightGoldenRodYellow; margin: 4px; border: 1px solid khaki\"> (<a href=\"https://loinc.org/\">LOINC</a>#95412-3)</span></p><p><b>date</b>: 2022-08-04</p><p><b>author</b>: <a href=\"Organization-Covid19OrganizationExample.html\">Organization/Covid19OrganizationExample</a> \"Covid19 Organization\"</p><p><b>title</b>: Covid19 Case Report</p></div>"
        },
        "identifier": {
          "system": "http://openhie.org/fhir/covid19-casereporting/identifier/covid19-case-report",
          "value": "1111"
        },
        "status": "final",
        "type": {
          "coding": [
            {
              "system": "http://loinc.org",
              "code": "95412-3"
            }
          ]
        },
        "date": "2022-08-04",
        "author": [
          {
            "reference": "Organization/Covid19OrganizationExample"
          }
        ],
        "title": "Covid19 Case Report",
        "section": [
          {
            "title": "Client registration",
            "code": {
              "coding": [
                {
                  "system": "http://example.com/fhir/example/CodeSystem/cs-case-report-sections",
                  "code": "CLIENT-REGISTRATION"
                }
              ]
            },
            "entry": [
              {
                "reference": "Patient/Covid19PatientExample"
              }
            ]
          },
          {
            "title": "Covid19 Assessment Encounter",
            "code": {
              "coding": [
                {
                  "system": "http://example.com/fhir/example/CodeSystem/cs-case-report-sections",
                  "code": "COVID-ASSESSMENT"
                }
              ]
            },
            "entry": [
              {
                "reference": "Encounter/Covid19AssessmentEncounterExample"
              },
              {
                "reference": "Covid19ReasonforAssessmentExample"
              },
              {
                "reference": "Condition/Covid19PresentationExample"
              },
              {
                "reference": "ClinicalImpression/Covid19SymptomExample"
              },
              {
                "reference": "Observation/Covid19ComorbidityPresentExample"
              },
              {
                "reference": "Condition/Covid19ConditionsComorbidityExample"
              },
              {
                "reference": "Condition/Covid19DiagnosisExample"
              },
              {
                "reference": "Condition/HIVDiagnosisExample"
              },
              {
                "reference": "Immunization/Covid19AssessmentVaccinationExample"
              },
              {
                "reference": "Observation/Covid19PatientOutcomeExample"
              }
            ]
          },
          {
            "title": "Lab Order Management",
            "code": {
              "coding": [
                {
                  "system": "http://example.com/fhir/example/CodeSystem/cs-case-report-sections",
                  "code": "LABORDER-MANAGEMENT"
                }
              ]
            },
            "entry": [
              {
                "reference": "ServiceRequest/Covid19LabOrderExample"
              },
              {
                "reference": "Specimen/Covid19SpecimenExample"
              },
              {
                "reference": "DiagnosticReport/Covid19SpecimenCollectionExample"
              },
              {
                "reference": "Task/Covid19LabOrderCancellationExample"
              },
              {
                "reference": "Covid19LabResultsExamples"
              }
            ]
          },
          {
            "title": "Covid 19 Vaccination",
            "code": {
              "coding": [
                {
                  "system": "http://example.com/fhir/example/CodeSystem/cs-case-report-sections",
                  "code": "COVID-VACCINATION"
                }
              ]
            },
            "entry": [
              {
                "reference": "Immunization/Covid19VaccinationExample"
              }
            ]
          }
        ]
      }
    },
    {
      "fullUrl": "Composition/Covid19PatientExample",
      "resource": {
        "resourceType": "Patient",
        "id": "Covid19PatientExample",
        "meta": {
          "profile": [
            "http://example.com/fhir/example/StructureDefinition/covid19-patient"
          ]
        },
        "text": {
          "status": "extensions",
          "div": "<div xmlns=\"http://www.w3.org/1999/xhtml\"><p><b>Generated Narrative: Patient</b></p><div style=\"display: inline-block; background-color: #d9e0e7; padding: 6px; margin: 4px; border: 1px solid #8da1b4; border-radius: 5px; line-height: 60%\"><p style=\"margin-bottom: 0px\">Resource Patient \"Covid19PatientExample\" </p><p style=\"margin-bottom: 0px\">Profile: <a href=\"StructureDefinition-covid19-patient.html\">Covid19 Patient</a></p></div><p><b>Client Ward Division</b>: Division 9087</p><p><b>Key population</b>: GENERAL-POPULATION <span style=\"background: LightGoldenRodYellow; margin: 4px; border: 1px solid khaki\"> ([not stated]#GENERAL-POPULATION)</span></p><p><b>identifier</b>: id: PASSPORT1234567, id: NAT1234567, id: EMR1234567</p><p><b>active</b>: true</p><p><b>name</b>: Jane Smith (OFFICIAL)</p><p><b>telecom</b>: <a href=\"tel:+27825556666\">+27825556666</a></p><p><b>gender</b>: female</p><p><b>birthDate</b>: 1986-06-04</p><p><b>address</b>: Cape Town Western Province South Africa </p><h3>Contacts</h3><table class=\"grid\"><tr><td>-</td><td><b>Relationship</b></td><td><b>Name</b></td><td><b>Telecom</b></td></tr><tr><td>*</td><td>N <span style=\"background: LightGoldenRodYellow; margin: 4px; border: 1px solid khaki\"> ([not stated]#N)</span></td><td>John </td><td>ph: -unknown-</td></tr></table><p><b>managingOrganization</b>: <a href=\"Organization-Covid19OrganizationExample.html\">Organization/Covid19OrganizationExample</a> \"Covid19 Organization\"</p></div>"
        },
        "extension": [
          {
            "url": "http://example.com/fhir/example/StructureDefinition/client-ward-division",
            "valueString": "Division 9087"
          },
          {
            "url": "http://example.com/fhir/example/StructureDefinition/key-population",
            "valueCodeableConcept": {
              "coding": [
                {
                  "code": "GENERAL-POPULATION"
                }
              ]
            }
          }
        ],
        "identifier": [
          {
            "system": "http://openhie.org/fhir/covid19-casereporting/identifier/passport",
            "value": "PASSPORT1234567"
          },
          {
            "system": "http://openhie.org/fhir/covid19-casereporting/identifier/nid",
            "value": "NAT1234567"
          },
          {
            "system": "http://openhie.org/fhir/covid19-casereporting/identifier/facility1",
            "value": "EMR1234567"
          }
        ],
        "active": true,
        "name": [
          {
            "use": "official",
            "family": "Smith",
            "given": [
              "Jane"
            ]
          }
        ],
        "telecom": [
          {
            "system": "phone",
            "value": "+27825556666"
          }
        ],
        "gender": "female",
        "birthDate": "1986-06-04",
        "address": [
          {
            "city": "Cape Town",
            "district": "City of Cape Town",
            "state": "Western Province",
            "country": "South Africa"
          }
        ],
        "contact": [
          {
            "relationship": [
              {
                "coding": [
                  {
                    "code": "N"
                  }
                ]
              }
            ],
            "name": {
              "family": "John"
            },
            "telecom": [
              {
                "system": "phone"
              }
            ]
          }
        ],
        "managingOrganization": {
          "reference": "Organization/Covid19OrganizationExample"
        }
      }
    },
    {
      "fullUrl": "Composition/Covid19AssessmentEncounterExample",
      "resource": {
        "resourceType": "Encounter",
        "id": "Covid19AssessmentEncounterExample",
        "meta": {
          "profile": [
            "http://example.com/fhir/example/StructureDefinition/covid19-encounter"
          ]
        },
        "text": {
          "status": "generated",
          "div": "<div xmlns=\"http://www.w3.org/1999/xhtml\"><p><b>Generated Narrative: Encounter</b></p><div style=\"display: inline-block; background-color: #d9e0e7; padding: 6px; margin: 4px; border: 1px solid #8da1b4; border-radius: 5px; line-height: 60%\"><p style=\"margin-bottom: 0px\">Resource Encounter \"Covid19AssessmentEncounterExample\" </p><p style=\"margin-bottom: 0px\">Profile: <a href=\"StructureDefinition-covid19-encounter.html\">Covid19 Assessment Encounter</a></p></div><p><b>status</b>: finished</p><p><b>class</b>: SS (Details: [not stated] code SS = 'SS', stated as 'null')</p><p><b>subject</b>: <a href=\"#Patient_Covid19PatientExample\">See above (Patient/Covid19PatientExample)</a></p><p><b>period</b>: 2022-07-28 --&gt; 2022-08-15</p><p><b>reasonCode</b>: Other specified details <span style=\"background: LightGoldenRodYellow; margin: 4px; border: 1px solid khaki\"> ([not stated]#Other)</span></p><h3>Diagnoses</h3><table class=\"grid\"><tr><td>-</td><td><b>Condition</b></td></tr><tr><td>*</td><td><a href=\"#Condition_Covid19PresentationExample\">See above (Condition/Covid19PresentationExample)</a></td></tr></table></div>"
        },
        "status": "finished",
        "class": {
          "code": "SS"
        },
        "subject": {
          "reference": "Patient/Covid19PatientExample"
        },
        "period": {
          "start": "2022-07-28",
          "end": "2022-08-15"
        },
        "reasonCode": [
          {
            "coding": [
              {
                "code": "Other"
              }
            ],
            "text": "Other specified details"
          }
        ],
        "diagnosis": [
          {
            "condition": {
              "reference": "Condition/Covid19PresentationExample"
            }
          }
        ]
      }
    },
    {
      "fullUrl": "Composition/Covid19PresentationExample",
      "resource": {
        "resourceType": "Condition",
        "id": "Covid19PresentationExample",
        "meta": {
          "profile": [
            "http://example.com/fhir/example/StructureDefinition/covid19-presentation"
          ]
        },
        "text": {
          "status": "generated",
          "div": "<div xmlns=\"http://www.w3.org/1999/xhtml\"><p><b>Generated Narrative: Condition</b></p><div style=\"display: inline-block; background-color: #d9e0e7; padding: 6px; margin: 4px; border: 1px solid #8da1b4; border-radius: 5px; line-height: 60%\"><p style=\"margin-bottom: 0px\">Resource Condition \"Covid19PresentationExample\" </p><p style=\"margin-bottom: 0px\">Profile: <a href=\"StructureDefinition-covid19-presentation.html\">Covid19 Presentation</a></p></div><p><b>subject</b>: <a href=\"#Patient_Covid19PatientExample\">See above (Patient/Covid19PatientExample)</a></p><p><b>encounter</b>: <a href=\"#Encounter_Covid19AssessmentEncounterExample\">See above (Encounter/Covid19AssessmentEncounterExample)</a></p><h3>Evidences</h3><table class=\"grid\"><tr><td>-</td><td><b>Code</b></td></tr><tr><td>*</td><td>Asymptomatic <span style=\"background: LightGoldenRodYellow; margin: 4px; border: 1px solid khaki\"> ([not stated]#Asymptomatic)</span></td></tr></table></div>"
        },
        "subject": {
          "reference": "Patient/Covid19PatientExample"
        },
        "encounter": {
          "reference": "Encounter/Covid19AssessmentEncounterExample"
        },
        "evidence": [
          {
            "code": [
              {
                "coding": [
                  {
                    "code": "Asymptomatic"
                  }
                ]
              }
            ]
          }
        ]
      }
    },
    {
      "fullUrl": "Composition/Covid19SymptomExample",
      "resource": {
        "resourceType": "ClinicalImpression",
        "id": "Covid19SymptomExample",
        "meta": {
          "profile": [
            "http://example.com/fhir/example/StructureDefinition/covid19-symptom"
          ]
        },
        "text": {
          "status": "generated",
          "div": "<div xmlns=\"http://www.w3.org/1999/xhtml\"><p><b>Generated Narrative: ClinicalImpression</b></p><div style=\"display: inline-block; background-color: #d9e0e7; padding: 6px; margin: 4px; border: 1px solid #8da1b4; border-radius: 5px; line-height: 60%\"><p style=\"margin-bottom: 0px\">Resource ClinicalImpression \"Covid19SymptomExample\" </p><p style=\"margin-bottom: 0px\">Profile: <a href=\"StructureDefinition-covid19-symptom.html\">Covid19 Symptom</a></p></div><p><b>status</b>: final</p><p><b>code</b>: Comorbid condition <span style=\"background: LightGoldenRodYellow; margin: 4px; border: 1px solid khaki\"> (<a href=\"https://loinc.org/\">LOINC</a>#75618-9)</span></p><p><b>subject</b>: <a href=\"#Patient_Covid19PatientExample\">See above (Patient/Covid19PatientExample)</a></p><p><b>encounter</b>: <a href=\"#Encounter_Covid19AssessmentEncounterExample\">See above (Encounter/Covid19AssessmentEncounterExample)</a></p><h3>Investigations</h3><table class=\"grid\"><tr><td>-</td><td><b>Code</b></td></tr><tr><td>*</td><td>JointPain <span style=\"background: LightGoldenRodYellow; margin: 4px; border: 1px solid khaki\"> ([not stated]#JointPain)</span></td></tr></table></div>"
        },
        "status": "final",
        "code": {
          "coding": [
            {
              "system": "http://loinc.org",
              "code": "75618-9"
            }
          ]
        },
        "subject": {
          "reference": "Patient/Covid19PatientExample"
        },
        "encounter": {
          "reference": "Encounter/Covid19AssessmentEncounterExample"
        },
        "investigation": [
          {
            "code": {
              "coding": [
                {
                  "code": "JointPain"
                }
              ]
            }
          }
        ]
      }
    },
    {
      "fullUrl": "Composition/Covid19ComorbidityPresentExample",
      "resource": {
        "resourceType": "Observation",
        "id": "Covid19ComorbidityPresentExample",
        "text": {
          "status": "generated",
          "div": "<div xmlns=\"http://www.w3.org/1999/xhtml\"><p><b>Generated Narrative: Observation</b></p><div style=\"display: inline-block; background-color: #d9e0e7; padding: 6px; margin: 4px; border: 1px solid #8da1b4; border-radius: 5px; line-height: 60%\"><p style=\"margin-bottom: 0px\">Resource Observation \"Covid19ComorbidityPresentExample\" </p></div><p><b>status</b>: final</p><p><b>code</b>: Comorbidities and coexisting conditions <span style=\"background: LightGoldenRodYellow; margin: 4px; border: 1px solid khaki\"> (<a href=\"https://loinc.org/\">LOINC</a>#83243-6)</span></p><p><b>subject</b>: <a href=\"#Patient_Covid19PatientExample\">See above (Patient/Covid19PatientExample)</a></p><p><b>encounter</b>: <a href=\"#Encounter_Covid19AssessmentEncounterExample\">See above (Encounter/Covid19AssessmentEncounterExample)</a></p><p><b>value</b>: Yes <span style=\"background: LightGoldenRodYellow; margin: 4px; border: 1px solid khaki\"> ([not stated]#Yes)</span></p></div>"
        },
        "status": "final",
        "code": {
          "coding": [
            {
              "system": "http://loinc.org",
              "code": "83243-6"
            }
          ]
        },
        "subject": {
          "reference": "Patient/Covid19PatientExample"
        },
        "encounter": {
          "reference": "Encounter/Covid19AssessmentEncounterExample"
        },
        "valueCodeableConcept": {
          "coding": [
            {
              "code": "Yes"
            }
          ]
        }
      }
    },
    {
      "fullUrl": "Composition/Covid19ConditionsComorbidityExample",
      "resource": {
        "resourceType": "Condition",
        "id": "Covid19ConditionsComorbidityExample",
        "meta": {
          "profile": [
            "http://example.com/fhir/example/StructureDefinition/covid19-conditions-comorbidity"
          ]
        },
        "text": {
          "status": "generated",
          "div": "<div xmlns=\"http://www.w3.org/1999/xhtml\"><p><b>Generated Narrative: Condition</b></p><div style=\"display: inline-block; background-color: #d9e0e7; padding: 6px; margin: 4px; border: 1px solid #8da1b4; border-radius: 5px; line-height: 60%\"><p style=\"margin-bottom: 0px\">Resource Condition \"Covid19ConditionsComorbidityExample\" </p><p style=\"margin-bottom: 0px\">Profile: <a href=\"StructureDefinition-covid19-conditions-comorbidity.html\">Covid19 Conditions or comorbidity</a></p></div><p><b>code</b>: Other <span style=\"background: LightGoldenRodYellow; margin: 4px; border: 1px solid khaki\"> ([not stated]#Other)</span></p><p><b>subject</b>: <a href=\"#Patient_Covid19PatientExample\">See above (Patient/Covid19PatientExample)</a></p><p><b>encounter</b>: <a href=\"#Encounter_Covid19AssessmentEncounterExample\">See above (Encounter/Covid19AssessmentEncounterExample)</a></p><p><b>note</b>: Other condition details specified here</p></div>"
        },
        "code": {
          "coding": [
            {
              "code": "Other"
            }
          ]
        },
        "subject": {
          "reference": "Patient/Covid19PatientExample"
        },
        "encounter": {
          "reference": "Encounter/Covid19AssessmentEncounterExample"
        },
        "note": [
          {
            "text": "Other condition details specified here"
          }
        ]
      }
    },
    {
      "fullUrl": "Composition/Covid19DiagnosisExample",
      "resource": {
        "resourceType": "Condition",
        "id": "Covid19DiagnosisExample",
        "text": {
          "status": "generated",
          "div": "<div xmlns=\"http://www.w3.org/1999/xhtml\"><p><b>Generated Narrative: Condition</b></p><div style=\"display: inline-block; background-color: #d9e0e7; padding: 6px; margin: 4px; border: 1px solid #8da1b4; border-radius: 5px; line-height: 60%\"><p style=\"margin-bottom: 0px\">Resource Condition \"Covid19DiagnosisExample\" </p></div><p><b>code</b>: Confirmed <span style=\"background: LightGoldenRodYellow; margin: 4px; border: 1px solid khaki\"> ([not stated]#Confirmed)</span></p><p><b>subject</b>: <a href=\"#Patient_Covid19PatientExample\">See above (Patient/Covid19PatientExample)</a></p><p><b>encounter</b>: <a href=\"#Encounter_Covid19AssessmentEncounterExample\">See above (Encounter/Covid19AssessmentEncounterExample)</a></p><p><b>recordedDate</b>: 2022-07-28</p></div>"
        },
        "code": {
          "coding": [
            {
              "code": "Confirmed"
            }
          ]
        },
        "subject": {
          "reference": "Patient/Covid19PatientExample"
        },
        "encounter": {
          "reference": "Encounter/Covid19AssessmentEncounterExample"
        },
        "recordedDate": "2022-07-28"
      }
    },
    {
      "fullUrl": "Composition/Covid19EverHospitalizedExample",
      "resource": {
        "resourceType": "Observation",
        "id": "Covid19EverHospitalizedExample",
        "meta": {
          "profile": [
            "http://example.com/fhir/example/StructureDefinition/covid19-everhospitalized"
          ]
        },
        "text": {
          "status": "generated",
          "div": "<div xmlns=\"http://www.w3.org/1999/xhtml\"><p><b>Generated Narrative: Observation</b></p><div style=\"display: inline-block; background-color: #d9e0e7; padding: 6px; margin: 4px; border: 1px solid #8da1b4; border-radius: 5px; line-height: 60%\"><p style=\"margin-bottom: 0px\">Resource Observation \"Covid19EverHospitalizedExample\" </p><p style=\"margin-bottom: 0px\">Profile: <a href=\"StructureDefinition-covid19-everhospitalized.html\">Covid19 Ever Hospitalised</a></p></div><p><b>status</b>: final</p><p><b>code</b>: Comorbid condition <span style=\"background: LightGoldenRodYellow; margin: 4px; border: 1px solid khaki\"> (<a href=\"https://loinc.org/\">LOINC</a>#75618-9)</span></p><p><b>encounter</b>: <a href=\"#Encounter_Covid19AssessmentEncounterExample\">See above (Encounter/Covid19AssessmentEncounterExample)</a></p><p><b>value</b>: Yes <span style=\"background: LightGoldenRodYellow; margin: 4px; border: 1px solid khaki\"> ([not stated]#Yes)</span></p></div>"
        },
        "status": "final",
        "code": {
          "coding": [
            {
              "system": "http://loinc.org",
              "code": "75618-9"
            }
          ]
        },
        "encounter": {
          "reference": "Encounter/Covid19AssessmentEncounterExample"
        },
        "valueCodeableConcept": {
          "coding": [
            {
              "code": "Yes"
            }
          ]
        }
      }
    },
    {
      "fullUrl": "Composition/Covid19VaccineDoseReceivedExample",
      "resource": {
        "resourceType": "Observation",
        "id": "Covid19VaccineDoseReceivedExample",
        "meta": {
          "profile": [
            "http://example.com/fhir/example/StructureDefinition/covid19-vaccine-dose-received"
          ]
        },
        "text": {
          "status": "generated",
          "div": "<div xmlns=\"http://www.w3.org/1999/xhtml\"><p><b>Generated Narrative: Observation</b></p><div style=\"display: inline-block; background-color: #d9e0e7; padding: 6px; margin: 4px; border: 1px solid #8da1b4; border-radius: 5px; line-height: 60%\"><p style=\"margin-bottom: 0px\">Resource Observation \"Covid19VaccineDoseReceivedExample\" </p><p style=\"margin-bottom: 0px\">Profile: <a href=\"StructureDefinition-covid19-vaccine-dose-received.html\">Covid19 Vaccine Dose Received</a></p></div><p><b>status</b>: final</p><p><b>code</b>: Comorbid condition <span style=\"background: LightGoldenRodYellow; margin: 4px; border: 1px solid khaki\"> (<a href=\"https://loinc.org/\">LOINC</a>#75618-9)</span></p><p><b>encounter</b>: <a href=\"#Encounter_Covid19AssessmentEncounterExample\">See above (Encounter/Covid19AssessmentEncounterExample)</a></p><p><b>value</b>: Yes <span style=\"background: LightGoldenRodYellow; margin: 4px; border: 1px solid khaki\"> ([not stated]#Yes)</span></p></div>"
        },
        "status": "final",
        "code": {
          "coding": [
            {
              "system": "http://loinc.org",
              "code": "75618-9"
            }
          ]
        },
        "encounter": {
          "reference": "Encounter/Covid19AssessmentEncounterExample"
        },
        "valueCodeableConcept": {
          "coding": [
            {
              "code": "Yes"
            }
          ]
        }
      }
    },
    {
      "fullUrl": "Composition/Covid19AssessmentVaccinationExample",
      "resource": {
        "resourceType": "Immunization",
        "id": "Covid19AssessmentVaccinationExample",
        "meta": {
          "profile": [
            "http://example.com/fhir/example/StructureDefinition/covid19-assessment-vaccination"
          ]
        },
        "text": {
          "status": "extensions",
          "div": "<div xmlns=\"http://www.w3.org/1999/xhtml\"><p><b>Generated Narrative: Immunization</b></p><div style=\"display: inline-block; background-color: #d9e0e7; padding: 6px; margin: 4px; border: 1px solid #8da1b4; border-radius: 5px; line-height: 60%\"><p style=\"margin-bottom: 0px\">Resource Immunization \"Covid19AssessmentVaccinationExample\" </p><p style=\"margin-bottom: 0px\">Profile: <a href=\"StructureDefinition-covid19-assessment-vaccination.html\">Covid19 Vaccination info included as part of the Assessment</a></p></div><p><b>Vaccination source of info</b>: VaccineCard <span style=\"background: LightGoldenRodYellow; margin: 4px; border: 1px solid khaki\"> ([not stated]#VaccineCard)</span></p><p><b>status</b>: not-done</p><p><b>vaccineCode</b>: PfizerBionTech <span style=\"background: LightGoldenRodYellow; margin: 4px; border: 1px solid khaki\"> ([not stated]#PfizerBionTech)</span></p><p><b>patient</b>: <a href=\"#Patient_Covid19PatientExample\">See above (Patient/Covid19PatientExample)</a></p><p><b>encounter</b>: <a href=\"#Encounter_Covid19AssessmentEncounterExample\">See above (Encounter/Covid19AssessmentEncounterExample)</a></p><p><b>occurrence</b>: 2022-07-28</p><h3>ProtocolApplieds</h3><table class=\"grid\"><tr><td>-</td><td><b>Extension</b></td><td><b>DoseNumber[x]</b></td></tr><tr><td>*</td><td></td><td>1</td></tr></table></div>"
        },
        "extension": [
          {
            "url": "http://example.com/fhir/example/StructureDefinition/vaccination-source-of-info",
            "valueCodeableConcept": {
              "coding": [
                {
                  "code": "VaccineCard"
                }
              ]
            }
          }
        ],
        "status": "not-done",
        "vaccineCode": {
          "coding": [
            {
              "code": "PfizerBionTech"
            }
          ]
        },
        "patient": {
          "reference": "Patient/Covid19PatientExample"
        },
        "encounter": {
          "reference": "Encounter/Covid19AssessmentEncounterExample"
        },
        "occurrenceDateTime": "2022-07-28",
        "protocolApplied": [
          {
            "extension": [
              {
                "url": "http://example.com/fhir/example/StructureDefinition/covid19-vaccine-series",
                "valueCodeableConcept": {
                  "coding": [
                    {
                      "code": "Booster"
                    }
                  ]
                }
              }
            ],
            "doseNumberPositiveInt": 1
          }
        ]
      }
    },
    {
      "fullUrl": "Composition/Covid19PatientOutcomeExample",
      "resource": {
        "resourceType": "Observation",
        "id": "Covid19PatientOutcomeExample",
        "meta": {
          "profile": [
            "http://example.com/fhir/example/StructureDefinition/covid19-patient-outcome"
          ]
        },
        "text": {
          "status": "extensions",
          "div": "<div xmlns=\"http://www.w3.org/1999/xhtml\"><p><b>Generated Narrative: Observation</b></p><div style=\"display: inline-block; background-color: #d9e0e7; padding: 6px; margin: 4px; border: 1px solid #8da1b4; border-radius: 5px; line-height: 60%\"><p style=\"margin-bottom: 0px\">Resource Observation \"Covid19PatientOutcomeExample\" </p><p style=\"margin-bottom: 0px\">Profile: <a href=\"StructureDefinition-covid19-patient-outcome.html\">Covid19 Patient Outcome</a></p></div><p><b>Covid19 Date Recovered</b>: 2022-07-28</p><p><b>Covid19 Date Recovered</b>: none</p><p><b>status</b>: final</p><p><b>code</b>: Comorbid condition <span style=\"background: LightGoldenRodYellow; margin: 4px; border: 1px solid khaki\"> (<a href=\"https://loinc.org/\">LOINC</a>#75618-9)</span></p><p><b>subject</b>: <a href=\"#Patient_Covid19PatientExample\">See above (Patient/Covid19PatientExample)</a></p><p><b>encounter</b>: <a href=\"#Encounter_Covid19AssessmentEncounterExample\">See above (Encounter/Covid19AssessmentEncounterExample)</a></p><p><b>value</b>: Recovered <span style=\"background: LightGoldenRodYellow; margin: 4px; border: 1px solid khaki\"> ([not stated]#Recovered)</span></p><p><b>note</b>: patient recovered</p></div>"
        },
        "extension": [
          {
            "url": "http://example.com/fhir/example/StructureDefinition/covid19-date-recovered",
            "valueDateTime": "2022-07-28"
          },
          {
            "url": "http://example.com/fhir/example/StructureDefinition/covid19-long-covid-description",
            "valueString": "none"
          }
        ],
        "status": "final",
        "code": {
          "coding": [
            {
              "system": "http://loinc.org",
              "code": "75618-9"
            }
          ]
        },
        "subject": {
          "reference": "Patient/Covid19PatientExample"
        },
        "encounter": {
          "reference": "Encounter/Covid19AssessmentEncounterExample"
        },
        "valueCodeableConcept": {
          "coding": [
            {
              "code": "Recovered"
            }
          ]
        },
        "note": [
          {
            "text": "patient recovered"
          }
        ]
      }
    },
    {
      "fullUrl": "Composition/Covid19LabOrderExample",
      "resource": {
        "resourceType": "ServiceRequest",
        "id": "Covid19LabOrderExample",
        "meta": {
          "profile": [
            "http://example.com/fhir/example/StructureDefinition/covid19-lab-order"
          ]
        },
        "text": {
          "status": "generated",
          "div": "<div xmlns=\"http://www.w3.org/1999/xhtml\"><p><b>Generated Narrative: ServiceRequest</b></p><div style=\"display: inline-block; background-color: #d9e0e7; padding: 6px; margin: 4px; border: 1px solid #8da1b4; border-radius: 5px; line-height: 60%\"><p style=\"margin-bottom: 0px\">Resource ServiceRequest \"Covid19LabOrderExample\" </p><p style=\"margin-bottom: 0px\">Profile: <a href=\"StructureDefinition-covid19-lab-order.html\">Covid19 Lab Order</a></p></div><p><b>status</b>: Pending</p><p><b>intent</b>: order</p><p><b>code</b>: Rapid <span style=\"background: LightGoldenRodYellow; margin: 4px; border: 1px solid khaki\"> ([not stated]#Rapid)</span></p><p><b>subject</b>: <a href=\"#Patient_Covid19PatientExample\">See above (Patient/Covid19PatientExample)</a></p><p><b>encounter</b>: <a href=\"#Encounter_Covid19AssessmentEncounterExample\">See above (Encounter/Covid19AssessmentEncounterExample)</a></p><p><b>authoredOn</b>: 2022-07-28</p><p><b>reasonCode</b>: Surveillance <span style=\"background: LightGoldenRodYellow; margin: 4px; border: 1px solid khaki\"> ([not stated]#Surveillance)</span></p></div>"
        },
        "status": "Pending",
        "intent": "order",
        "code": {
          "coding": [
            {
              "code": "Rapid"
            }
          ]
        },
        "subject": {
          "reference": "Patient/Covid19PatientExample"
        },
        "encounter": {
          "reference": "Encounter/Covid19AssessmentEncounterExample"
        },
        "authoredOn": "2022-07-28",
        "reasonCode": [
          {
            "coding": [
              {
                "code": "Surveillance"
              }
            ]
          }
        ]
      }
    },
    {
      "fullUrl": "Composition/Covid19SpecimenExample",
      "resource": {
        "resourceType": "Specimen",
        "id": "Covid19SpecimenExample",
        "meta": {
          "profile": [
            "http://example.com/fhir/example/StructureDefinition/covid19-specimen"
          ]
        },
        "text": {
          "status": "generated",
          "div": "<div xmlns=\"http://www.w3.org/1999/xhtml\"><p><b>Generated Narrative: Specimen</b></p><div style=\"display: inline-block; background-color: #d9e0e7; padding: 6px; margin: 4px; border: 1px solid #8da1b4; border-radius: 5px; line-height: 60%\"><p style=\"margin-bottom: 0px\">Resource Specimen \"Covid19SpecimenExample\" </p><p style=\"margin-bottom: 0px\">Profile: <a href=\"StructureDefinition-covid19-specimen.html\">Covid19 Specimen</a></p></div><p><b>type</b>: Serum <span style=\"background: LightGoldenRodYellow; margin: 4px; border: 1px solid khaki\"> ([not stated]#Serum)</span></p><h3>Collections</h3><table class=\"grid\"><tr><td>-</td><td><b>Collected[x]</b></td></tr><tr><td>*</td><td>2022-07-28</td></tr></table></div>"
        },
        "type": {
          "coding": [
            {
              "code": "Serum"
            }
          ]
        },
        "collection": {
          "collectedDateTime": "2022-07-28"
        }
      }
    },
    {
      "fullUrl": "Composition/Covid19SpecimenCollectionExample",
      "resource": {
        "resourceType": "DiagnosticReport",
        "id": "Covid19SpecimenCollectionExample",
        "meta": {
          "profile": [
            "http://example.com/fhir/example/StructureDefinition/covid19-specimen-collection"
          ]
        },
        "text": {
          "status": "extensions",
          "div": "<div xmlns=\"http://www.w3.org/1999/xhtml\"><p><b>Generated Narrative: DiagnosticReport</b></p><div style=\"display: inline-block; background-color: #d9e0e7; padding: 6px; margin: 4px; border: 1px solid #8da1b4; border-radius: 5px; line-height: 60%\"><p style=\"margin-bottom: 0px\">Resource DiagnosticReport \"Covid19SpecimenCollectionExample\" </p><p style=\"margin-bottom: 0px\">Profile: <a href=\"StructureDefinition-covid19-specimen-collection.html\">Covid19 Specimen Collection</a></p></div><p><b>Covid19 Specimen Forwarded</b>: Yes <span style=\"background: LightGoldenRodYellow; margin: 4px; border: 1px solid khaki\"> ([not stated]#Yes)</span></p><p><b>Covid19 Reference Lab</b>: <a href=\"Organization-Covid19Laboratory.html\">Organization/Covid19Laboratory</a></p><p><b>identifier</b>: id: ?ngen-9?</p><p><b>status</b>: final</p><p><b>code</b>: SARS-CoV-2 (COVID-19) variant [Type] in Specimen by NAA with probe detection <span style=\"background: LightGoldenRodYellow; margin: 4px; border: 1px solid khaki\"> (<a href=\"https://loinc.org/\">LOINC</a>#100156-9)</span></p><p><b>subject</b>: <a href=\"#Patient_Covid19PatientExample\">See above (Patient/Covid19PatientExample)</a></p><p><b>encounter</b>: <a href=\"#Encounter_Covid19AssessmentEncounterExample\">See above (Encounter/Covid19AssessmentEncounterExample)</a></p><p><b>specimen</b>: <a href=\"#Specimen_Covid19SpecimenExample\">See above (Specimen/Covid19SpecimenExample)</a></p></div>"
        },
        "extension": [
          {
            "url": "http://example.com/fhir/example/StructureDefinition/covid19-specimen-forwarded",
            "valueCodeableConcept": {
              "coding": [
                {
                  "code": "Yes"
                }
              ]
            }
          },
          {
            "url": "http://example.com/fhir/example/StructureDefinition/covid-19reference-lab",
            "valueReference": {
              "reference": "Organization/Covid19Laboratory"
            }
          }
        ],
        "identifier": [
          {
            "id": "12341324"
          }
        ],
        "status": "final",
        "code": {
          "coding": [
            {
              "system": "http://loinc.org",
              "code": "100156-9"
            }
          ]
        },
        "subject": {
          "reference": "Patient/Covid19PatientExample"
        },
        "encounter": {
          "reference": "Encounter/Covid19AssessmentEncounterExample"
        },
        "specimen": [
          {
            "reference": "Specimen/Covid19SpecimenExample"
          }
        ]
      }
    },
    {
      "fullUrl": "Composition/Covid19LabOrderCancellationExample",
      "resource": {
        "resourceType": "Task",
        "id": "Covid19LabOrderCancellationExample",
        "meta": {
          "profile": [
            "http://example.com/fhir/example/StructureDefinition/covid19-lab-order-cancellation"
          ]
        },
        "text": {
          "status": "generated",
          "div": "<div xmlns=\"http://www.w3.org/1999/xhtml\"><p><b>Generated Narrative: Task</b></p><div style=\"display: inline-block; background-color: #d9e0e7; padding: 6px; margin: 4px; border: 1px solid #8da1b4; border-radius: 5px; line-height: 60%\"><p style=\"margin-bottom: 0px\">Resource Task \"Covid19LabOrderCancellationExample\" </p><p style=\"margin-bottom: 0px\">Profile: <a href=\"StructureDefinition-covid19-lab-order-cancellation.html\">Covid19 Lab Order Cancellation</a></p></div><p><b>status</b>: requested</p><p><b>intent</b>: order</p><p><b>focus</b>: <a href=\"#ServiceRequest_Covid19LabOrderExample\">See above (ServiceRequest/Covid19LabOrderExample)</a></p><p><b>for</b>: <a href=\"#Patient_Covid19PatientExample\">See above (Patient/Covid19PatientExample)</a></p><p><b>encounter</b>: <a href=\"#Encounter_Covid19AssessmentEncounterExample\">See above (Encounter/Covid19AssessmentEncounterExample)</a></p><p><b>authoredOn</b>: 2022-07-28</p><p><b>reasonCode</b>: Duplicate <span style=\"background: LightGoldenRodYellow; margin: 4px; border: 1px solid khaki\"> ([not stated]#Duplicate)</span></p></div>"
        },
        "status": "requested",
        "intent": "order",
        "focus": {
          "reference": "ServiceRequest/Covid19LabOrderExample"
        },
        "for": {
          "reference": "Patient/Covid19PatientExample"
        },
        "encounter": {
          "reference": "Encounter/Covid19AssessmentEncounterExample"
        },
        "authoredOn": "2022-07-28",
        "reasonCode": {
          "coding": [
            {
              "code": "Duplicate"
            }
          ]
        }
      }
    },
    {
      "fullUrl": "Composition/Covid19LabResultsExample",
      "resource": {
        "resourceType": "DiagnosticReport",
        "id": "Covid19LabResultsExample",
        "meta": {
          "profile": [
            "http://example.com/fhir/example/StructureDefinition/covid19-lab-results"
          ]
        },
        "text": {
          "status": "extensions",
          "div": "<div xmlns=\"http://www.w3.org/1999/xhtml\"><p><b>Generated Narrative: DiagnosticReport</b></p><div style=\"display: inline-block; background-color: #d9e0e7; padding: 6px; margin: 4px; border: 1px solid #8da1b4; border-radius: 5px; line-height: 60%\"><p style=\"margin-bottom: 0px\">Resource DiagnosticReport \"Covid19LabResultsExample\" </p><p style=\"margin-bottom: 0px\">Profile: <a href=\"StructureDefinition-covid19-lab-results.html\">Covid19 Lab Results</a></p></div><p><b>Covid19 Test Completed</b>: Yes <span style=\"background: LightGoldenRodYellow; margin: 4px; border: 1px solid khaki\"> ([not stated]#Yes)</span></p><p><b>Covid19 Reason Test not performed</b>: Other <span style=\"background: LightGoldenRodYellow; margin: 4px; border: 1px solid khaki\"> ([not stated]#Other)</span></p><p><b>identifier</b>: id: ?ngen-9?</p><p><b>status</b>: final</p><p><b>code</b>: SARS-CoV-2 (COVID-19) variant [Type] in Specimen by NAA with probe detection <span style=\"background: LightGoldenRodYellow; margin: 4px; border: 1px solid khaki\"> (<a href=\"https://loinc.org/\">LOINC</a>#100156-9)</span></p><p><b>subject</b>: <a href=\"#Patient_Covid19PatientExample\">See above (Patient/Covid19PatientExample)</a></p><p><b>encounter</b>: <a href=\"#Encounter_Covid19AssessmentEncounterExample\">See above (Encounter/Covid19AssessmentEncounterExample)</a></p><p><b>effective</b>: 2022-07-28</p><p><b>conclusionCode</b>: Positive <span style=\"background: LightGoldenRodYellow; margin: 4px; border: 1px solid khaki\"> ([not stated]#Positive)</span></p></div>"
        },
        "extension": [
          {
            "url": "http://example.com/fhir/example/StructureDefinition/covid19-test-completed",
            "valueCodeableConcept": {
              "coding": [
                {
                  "code": "Yes"
                }
              ]
            }
          },
          {
            "url": "http://example.com/fhir/example/StructureDefinition/covid19-reason-test-not-performed",
            "valueCodeableConcept": {
              "coding": [
                {
                  "code": "Other"
                }
              ]
            }
          }
        ],
        "identifier": [
          {
            "id": "12341324"
          }
        ],
        "status": "final",
        "code": {
          "coding": [
            {
              "system": "http://loinc.org",
              "code": "100156-9"
            }
          ]
        },
        "subject": {
          "reference": "Patient/Covid19PatientExample"
        },
        "encounter": {
          "reference": "Encounter/Covid19AssessmentEncounterExample"
        },
        "effectiveDateTime": "2022-07-28",
        "conclusionCode": [
          {
            "coding": [
              {
                "code": "Positive"
              }
            ]
          }
        ]
      }
    },
    {
      "fullUrl": "Composition/Covid19VaccinationExample",
      "resource": {
        "resourceType": "Immunization",
        "id": "Covid19VaccinationExample",
        "meta": {
          "profile": [
            "http://example.com/fhir/example/StructureDefinition/covid19-vaccination"
          ]
        },
        "text": {
          "status": "extensions",
          "div": "<div xmlns=\"http://www.w3.org/1999/xhtml\"><p><b>Generated Narrative: Immunization</b></p><div style=\"display: inline-block; background-color: #d9e0e7; padding: 6px; margin: 4px; border: 1px solid #8da1b4; border-radius: 5px; line-height: 60%\"><p style=\"margin-bottom: 0px\">Resource Immunization \"Covid19VaccinationExample\" </p><p style=\"margin-bottom: 0px\">Profile: <a href=\"StructureDefinition-covid19-vaccination.html\">Covid19 Vaccination</a></p></div><p><b>Covid19 Date of next vaccination</b>: 2022-12-28</p><p><b>Covid19 Other vaccine</b>: n/a</p><p><b>status</b>: final</p><p><b>vaccineCode</b>: Astrazeneca <span style=\"background: LightGoldenRodYellow; margin: 4px; border: 1px solid khaki\"> ([not stated]#Astrazeneca)</span></p><p><b>patient</b>: <a href=\"#Patient_Covid19PatientExample\">See above (Patient/Covid19PatientExample)</a></p><p><b>occurrence</b>: 2022-07-28</p><p><b>lotNumber</b>: 1</p><p><b>expirationDate</b>: 2022-12-28</p><h3>ProtocolApplieds</h3><table class=\"grid\"><tr><td>-</td><td><b>Extension</b></td><td><b>DoseNumber[x]</b></td></tr><tr><td>*</td><td></td><td>1</td></tr></table></div>"
        },
        "extension": [
          {
            "url": "http://example.com/fhir/example/StructureDefinition/covid19-next-vaccination-date",
            "valueDate": "2022-12-28"
          },
          {
            "url": "http://example.com/fhir/example/StructureDefinition/covid19-other-vaccine",
            "valueString": "n/a"
          }
        ],
        "status": "final",
        "vaccineCode": {
          "coding": [
            {
              "code": "Astrazeneca"
            }
          ]
        },
        "patient": {
          "reference": "Patient/Covid19PatientExample"
        },
        "occurrenceDateTime": "2022-07-28",
        "lotNumber": "1",
        "expirationDate": "2022-12-28",
        "protocolApplied": [
          {
            "extension": [
              {
                "url": "http://example.com/fhir/example/StructureDefinition/covid19-vaccine-series",
                "valueCodeableConcept": {
                  "coding": [
                    {
                      "code": "Booster"
                    }
                  ]
                }
              }
            ],
            "doseNumberPositiveInt": 1
          }
        ]
      }
    }
  ]
}