{
  "resourceType": "Bundle",
  "id": "CaresBundleExample",
  "type": "transaction",
  "entry": [
    {
      "fullUrl": "Patient/Covid19PatientExample",
      "resource": {
        "resourceType": "Patient",
        "id": "Covid19PatientExample",
        "meta": {
          "profile": [
            "http://openhie.org/fhir/covid19-casereporting/StructureDefinition/covid19-patient"
          ]
        },
        "text": {
          "status": "generated",
          "div": "<div xmlns=\"http://www.w3.org/1999/xhtml\"><p><b>Generated Narrative: Patient</b><a name=\"Covid19PatientExample\"> </a></p><div style=\"display: inline-block; background-color: #d9e0e7; padding: 6px; margin: 4px; border: 1px solid #8da1b4; border-radius: 5px; line-height: 60%\"><p style=\"margin-bottom: 0px\">Resource Patient \"Covid19PatientExample\" </p><p style=\"margin-bottom: 0px\">Profile: <a href=\"StructureDefinition-covid19-patient.html\">Covid19 Patient</a></p></div><p><b>identifier</b>: id: PASSPORT1234567, id: NAT1234567, id: EMR1234567</p><p><b>active</b>: true</p><p><b>name</b>: Jane Smith (OFFICIAL)</p><p><b>telecom</b>: <a href=\"tel:+27825556666\">+27825556666</a></p><p><b>gender</b>: female</p><p><b>birthDate</b>: 1986-06-04</p><p><b>address</b>: Cape Town Western Province South Africa </p><h3>Contacts</h3><table class=\"grid\"><tr><td>-</td><td><b>Relationship</b></td><td><b>Name</b></td><td><b>Telecom</b></td></tr><tr><td>*</td><td>Next-of-Kin <span style=\"background: LightGoldenRodYellow; margin: 4px; border: 1px solid khaki\"> (<a href=\"http://terminology.hl7.org/4.0.0/CodeSystem-v2-0131.html\">contactRole2</a>#N)</span></td><td>John </td><td><a href=\"tel:+27825556667\">+27825556667</a></td></tr></table><p><b>managingOrganization</b>: <a href=\"Organization-Covid19OrganizationExample.html\">Organization/Covid19OrganizationExample</a> \"Covid19 Organization\"</p></div>"
        },
        "identifier": [
          {
            "system": "http://openhie.org/fhir/covid19-casereporting/identifier/passport",
            "value": "PASSPORT1234567"
          },
          {
            "system": "http://openhie.org/fhir/covid19-casereporting/identifier/nid",
            "value": "NAT1234567"
          },
          {
            "system": "http://openhie.org/fhir/covid19-casereporting/identifier/facility",
            "value": "EMR1234567"
          }
        ],
        "active": true,
        "name": [
          {
            "use": "official",
            "family": "Smith",
            "given": [
              "Jane"
            ]
          }
        ],
        "telecom": [
          {
            "system": "phone",
            "value": "+27825556666"
          }
        ],
        "gender": "female",
        "birthDate": "1986-06-04",
        "address": [
          {
            "city": "Cape Town",
            "district": "City of Cape Town",
            "state": "Western Province",
            "country": "South Africa"
          }
        ],
        "contact": [
          {
            "relationship": [
              {
                "coding": [
                  {
                    "system": "http://terminology.hl7.org/CodeSystem/v2-0131",
                    "code": "N"
                  }
                ]
              }
            ],
            "name": {
              "family": "John"
            },
            "telecom": [
              {
                "system": "phone",
                "value": "+27825556667"
              }
            ]
          }
        ],
        "managingOrganization": {
          "reference": "Organization/Covid19OrganizationExample"
        }
      },
      "request": {
        "method": "PUT",
        "url": "Patient/"
      }
    },
    {
      "fullUrl": "Encounter/Covid19AssessmentEncounterExample",
      "resource": {
        "resourceType": "Encounter",
        "id": "Covid19AssessmentEncounterExample",
        "meta": {
          "profile": [
            "http://openhie.org/fhir/covid19-casereporting/StructureDefinition/covid19-encounter"
          ]
        },
        "text": {
          "status": "generated",
          "div": "<div xmlns=\"http://www.w3.org/1999/xhtml\"><p><b>Generated Narrative: Encounter</b><a name=\"Covid19AssessmentEncounterExample\"> </a></p><div style=\"display: inline-block; background-color: #d9e0e7; padding: 6px; margin: 4px; border: 1px solid #8da1b4; border-radius: 5px; line-height: 60%\"><p style=\"margin-bottom: 0px\">Resource Encounter \"Covid19AssessmentEncounterExample\" </p><p style=\"margin-bottom: 0px\">Profile: <a href=\"StructureDefinition-covid19-encounter.html\">Covid19 Assessment Encounter</a></p></div><p><b>status</b>: finished</p><p><b>class</b>: SS (Details: [not stated] code SS = 'SS', stated as 'null')</p><p><b>subject</b>: <a href=\"#Patient_Covid19PatientExample\">See above (Patient/Covid19PatientExample)</a></p><p><b>period</b>: 2022-07-28 --&gt; 2022-08-15</p><p><b>reasonCode</b>: Person exposed to disease (person) <span style=\"background: LightGoldenRodYellow; margin: 4px; border: 1px solid khaki\"> (<a href=\"https://browser.ihtsdotools.org/\">SNOMED CT</a>#428792000)</span></p></div>"
        },
        "status": "finished",
        "class": {
          "code": "SS"
        },
        "subject": {
          "reference": "Patient/Covid19PatientExample"
        },
        "period": {
          "start": "2022-07-28",
          "end": "2022-08-15"
        },
        "reasonCode": [
          {
            "coding": [
              {
                "system": "http://snomed.info/sct",
                "code": "428792000"
              }
            ]
          }
        ]
      },
      "request": {
        "method": "PUT",
        "url": "Encounter/"
      }
    },
    {
      "fullUrl": "Condition/Covid19DiagnosisExample",
      "resource": {
        "resourceType": "Condition",
        "id": "Covid19DiagnosisExample",
        "meta": {
          "profile": [
            "http://openhie.org/fhir/covid19-casereporting/StructureDefinition/covid19-diagnosis"
          ]
        },
        "text": {
          "status": "generated",
          "div": "<div xmlns=\"http://www.w3.org/1999/xhtml\"><p><b>Generated Narrative: Condition</b><a name=\"Covid19DiagnosisExample\"> </a></p><div style=\"display: inline-block; background-color: #d9e0e7; padding: 6px; margin: 4px; border: 1px solid #8da1b4; border-radius: 5px; line-height: 60%\"><p style=\"margin-bottom: 0px\">Resource Condition \"Covid19DiagnosisExample\" </p><p style=\"margin-bottom: 0px\">Profile: <a href=\"StructureDefinition-covid19-diagnosis.html\">Covid19 Diagnosis</a></p></div><p><b>clinicalStatus</b>: Patient condition resolved (finding) <span style=\"background: LightGoldenRodYellow; margin: 4px; border: 1px solid khaki\"> (<a href=\"https://browser.ihtsdotools.org/\">SNOMED CT</a>#370996005)</span></p><p><b>verificationStatus</b>: Confirmed present (qualifier value) <span style=\"background: LightGoldenRodYellow; margin: 4px; border: 1px solid khaki\"> (<a href=\"https://browser.ihtsdotools.org/\">SNOMED CT</a>#410605003)</span></p><p><b>code</b>: Confirmed <span style=\"background: LightGoldenRodYellow; margin: 4px; border: 1px solid khaki\"> ([not stated]#Confirmed)</span></p><p><b>subject</b>: <a href=\"#Patient_Covid19PatientExample\">See above (Patient/Covid19PatientExample)</a></p><p><b>encounter</b>: <a href=\"#Encounter_Covid19AssessmentEncounterExample\">See above (Encounter/Covid19AssessmentEncounterExample)</a></p><p><b>recordedDate</b>: 2022-07-28</p></div>"
        },
        "clinicalStatus": {
          "coding": [
            {
              "system": "http://snomed.info/sct",
              "code": "370996005"
            }
          ]
        },
        "verificationStatus": {
          "coding": [
            {
              "system": "http://snomed.info/sct",
              "code": "410605003"
            }
          ]
        },
        "code": {
          "coding": [
            {
              "code": "Confirmed"
            }
          ]
        },
        "subject": {
          "reference": "Patient/Covid19PatientExample"
        },
        "encounter": {
          "reference": "Encounter/Covid19AssessmentEncounterExample"
        },
        "recordedDate": "2022-07-28"
      },
      "request": {
        "method": "PUT",
        "url": "Condition/"
      }
    },
    {
      "fullUrl": "Immunization/Covid19AssessmentVaccinationExample",
      "resource": {
        "resourceType": "Immunization",
        "id": "Covid19AssessmentVaccinationExample",
        "meta": {
          "profile": [
            "http://openhie.org/fhir/covid19-casereporting/StructureDefinition/covid19-assessment-vaccination"
          ]
        },
        "text": {
          "status": "generated",
          "div": "<div xmlns=\"http://www.w3.org/1999/xhtml\"><p><b>Generated Narrative: Immunization</b><a name=\"Covid19AssessmentVaccinationExample\"> </a></p><div style=\"display: inline-block; background-color: #d9e0e7; padding: 6px; margin: 4px; border: 1px solid #8da1b4; border-radius: 5px; line-height: 60%\"><p style=\"margin-bottom: 0px\">Resource Immunization \"Covid19AssessmentVaccinationExample\" </p><p style=\"margin-bottom: 0px\">Profile: <a href=\"StructureDefinition-covid19-assessment-vaccination.html\">Covid19 Vaccination info included as part of the Assessment</a></p></div><p><b>status</b>: completed</p><p><b>vaccineCode</b>: XM8NQ0 <span style=\"background: LightGoldenRodYellow; margin: 4px; border: 1px solid khaki\"> (mms#XM8NQ0)</span></p><p><b>patient</b>: <a href=\"#Patient_Covid19PatientExample\">See above (Patient/Covid19PatientExample)</a></p><p><b>encounter</b>: <a href=\"#Encounter_Covid19AssessmentEncounterExample\">See above (Encounter/Covid19AssessmentEncounterExample)</a></p><p><b>occurrence</b>: 2022-07-28</p><p><b>reportOrigin</b>: Vaccine Card <span style=\"background: LightGoldenRodYellow; margin: 4px; border: 1px solid khaki\"> (<a href=\"CodeSystem-cs-source-of-info.html\">Source of information - codes</a>#VaccineCard)</span></p><h3>ProtocolApplieds</h3><table class=\"grid\"><tr><td>-</td><td><b>Series</b></td><td><b>DoseNumber[x]</b></td></tr><tr><td>*</td><td>Booster</td><td>1</td></tr></table></div>"
        },
        "status": "completed",
        "vaccineCode": {
          "coding": [
            {
              "system": "http://id.who.int/icd11/mms",
              "code": "XM8NQ0"
            }
          ]
        },
        "patient": {
          "reference": "Patient/Covid19PatientExample"
        },
        "encounter": {
          "reference": "Encounter/Covid19AssessmentEncounterExample"
        },
        "occurrenceDateTime": "2022-07-28",
        "reportOrigin": {
          "coding": [
            {
              "system": "http://openhie.org/fhir/covid19-casereporting/CodeSystem/cs-source-of-info",
              "code": "VaccineCard"
            }
          ]
        },
        "protocolApplied": [
          {
            "series": "Booster",
            "doseNumberPositiveInt": 1
          }
        ]
      },
      "request": {
        "method": "PUT",
        "url": "Immunization/"
      }
    },
    {
      "fullUrl": "Immunization/Covid19VaccinationExample",
      "resource": {
        "resourceType": "Immunization",
        "id": "Covid19VaccinationExample",
        "meta": {
          "profile": [
            "http://openhie.org/fhir/covid19-casereporting/StructureDefinition/covid19-vaccination"
          ]
        },
        "text": {
          "status": "generated",
          "div": "<div xmlns=\"http://www.w3.org/1999/xhtml\"><p><b>Generated Narrative: Immunization</b><a name=\"Covid19VaccinationExample\"> </a></p><div style=\"display: inline-block; background-color: #d9e0e7; padding: 6px; margin: 4px; border: 1px solid #8da1b4; border-radius: 5px; line-height: 60%\"><p style=\"margin-bottom: 0px\">Resource Immunization \"Covid19VaccinationExample\" </p><p style=\"margin-bottom: 0px\">Profile: <a href=\"StructureDefinition-covid19-vaccination.html\">Covid19 Vaccination</a></p></div><p><b>status</b>: completed</p><p><b>vaccineCode</b>: XM4YL8 <span style=\"background: LightGoldenRodYellow; margin: 4px; border: 1px solid khaki\"> (mms#XM4YL8)</span></p><p><b>patient</b>: <a href=\"#Patient_Covid19PatientExample\">See above (Patient/Covid19PatientExample)</a></p><p><b>encounter</b>: <a href=\"#Encounter_Covid19AssessmentEncounterExample\">See above (Encounter/Covid19AssessmentEncounterExample)</a></p><p><b>occurrence</b>: 2022-07-28</p><p><b>reportOrigin</b>: Vaccine Card <span style=\"background: LightGoldenRodYellow; margin: 4px; border: 1px solid khaki\"> (<a href=\"CodeSystem-cs-source-of-info.html\">Source of information - codes</a>#VaccineCard)</span></p><p><b>lotNumber</b>: 1</p><p><b>expirationDate</b>: 2022-12-28</p><h3>ProtocolApplieds</h3><table class=\"grid\"><tr><td>-</td><td><b>Series</b></td><td><b>DoseNumber[x]</b></td></tr><tr><td>*</td><td>Booster</td><td>1</td></tr></table></div>"
        },
        "status": "completed",
        "vaccineCode": {
          "coding": [
            {
              "system": "http://id.who.int/icd11/mms",
              "code": "XM4YL8"
            }
          ]
        },
        "patient": {
          "reference": "Patient/Covid19PatientExample"
        },
        "encounter": {
          "reference": "Encounter/Covid19AssessmentEncounterExample"
        },
        "occurrenceDateTime": "2022-07-28",
        "reportOrigin": {
          "coding": [
            {
              "system": "http://openhie.org/fhir/covid19-casereporting/CodeSystem/cs-source-of-info",
              "code": "VaccineCard"
            }
          ]
        },
        "lotNumber": "1",
        "expirationDate": "2022-12-28",
        "protocolApplied": [
          {
            "series": "Booster",
            "doseNumberPositiveInt": 1
          }
        ]
      },
      "request": {
        "method": "PUT",
        "url": "Immunization/"
      }
    },
    {
      "fullUrl": "ServiceRequest/Covid19LabOrderExample",
      "resource": {
        "resourceType": "ServiceRequest",
        "id": "Covid19LabOrderExample",
        "meta": {
          "profile": [
            "http://openhie.org/fhir/covid19-casereporting/StructureDefinition/covid19-lab-order"
          ]
        },
        "text": {
          "status": "generated",
          "div": "<div xmlns=\"http://www.w3.org/1999/xhtml\"><p><b>Generated Narrative: ServiceRequest</b><a name=\"Covid19LabOrderExample\"> </a></p><div style=\"display: inline-block; background-color: #d9e0e7; padding: 6px; margin: 4px; border: 1px solid #8da1b4; border-radius: 5px; line-height: 60%\"><p style=\"margin-bottom: 0px\">Resource ServiceRequest \"Covid19LabOrderExample\" </p><p style=\"margin-bottom: 0px\">Profile: <a href=\"StructureDefinition-covid19-lab-order.html\">Covid19 Lab Order</a></p></div><p><b>identifier</b>: id: ORDERNR109191879</p><p><b>status</b>: completed</p><p><b>intent</b>: order</p><p><b>code</b>: 94745-7 <span style=\"background: LightGoldenRodYellow; margin: 4px; border: 1px solid khaki\"> (loinc.org#94745-7)</span></p><p><b>subject</b>: <a href=\"#Patient_Covid19PatientExample\">See above (Patient/Covid19PatientExample)</a></p><p><b>encounter</b>: <a href=\"#Encounter_Covid19AssessmentEncounterExample\">See above (Encounter/Covid19AssessmentEncounterExample)</a></p><p><b>occurrence</b>: 2012-01-05</p><p><b>requester</b>: <a href=\"Organization-Covid19OrganizationExample.html\">Organization/Covid19OrganizationExample</a> \"Covid19 Organization\"</p><p><b>locationReference</b>: <a href=\"Covid19Laboratory\">Covid19Laboratory</a></p><p><b>reasonCode</b>: Surveillance <span style=\"background: LightGoldenRodYellow; margin: 4px; border: 1px solid khaki\"> (<a href=\"https://browser.ihtsdotools.org/\">SNOMED CT</a>#Surveillance)</span></p><p><b>specimen</b>: <a href=\"#Specimen_Covid19SpecimenExample\">See above (Specimen/Covid19SpecimenExample)</a></p></div>"
        },
        "identifier": [
          {
            "system": "http://covid19laborder.org/order",
            "value": "ORDERNR109191879"
          }
        ],
        "status": "completed",
        "intent": "order",
        "code": {
          "coding": [
            {
              "system": "https://loinc.org",
              "code": "94745-7"
            }
          ]
        },
        "subject": {
          "reference": "Patient/Covid19PatientExample"
        },
        "encounter": {
          "reference": "Encounter/Covid19AssessmentEncounterExample"
        },
        "occurrenceDateTime": "2012-01-05",
        "requester": {
          "reference": "Organization/Covid19OrganizationExample"
        },
        "locationReference": [
          {
            "reference": "Covid19Laboratory"
          }
        ],
        "reasonCode": [
          {
            "coding": [
              {
                "system": "http://snomed.info/sct",
                "code": "Surveillance"
              }
            ]
          }
        ],
        "specimen": [
          {
            "reference": "Specimen/Covid19SpecimenExample"
          }
        ]
      },
      "request": {
        "method": "PUT",
        "url": "ServiceRequest/"
      }
    },
    {
      "fullUrl": "Location/Covid19ServiceRequestLocationExample",
      "resource": {
        "resourceType": "Location",
        "id": "Covid19ServiceRequestLocationExample",
        "meta": {
          "profile": [
            "http://openhie.org/fhir/covid19-casereporting/StructureDefinition/covid19-service-request-location"
          ]
        },
        "text": {
          "status": "generated",
          "div": "<div xmlns=\"http://www.w3.org/1999/xhtml\"><p><b>Generated Narrative: Location</b><a name=\"Covid19ServiceRequestLocationExample\"> </a></p><div style=\"display: inline-block; background-color: #d9e0e7; padding: 6px; margin: 4px; border: 1px solid #8da1b4; border-radius: 5px; line-height: 60%\"><p style=\"margin-bottom: 0px\">Resource Location \"Covid19ServiceRequestLocationExample\" </p><p style=\"margin-bottom: 0px\">Profile: <a href=\"StructureDefinition-covid19-service-request-location.html\">Covid19 Service Request Location</a></p></div><p><b>name</b>: Covid19 Location</p><p><b>address</b>: Cares city 1 Cares state 1 Cares country 1 </p></div>"
        },
        "name": "Covid19 Location",
        "address": {
          "city": "Cares city 1",
          "district": "Cares district 1",
          "state": "Cares state 1",
          "country": "Cares country 1"
        }
      },
      "request": {
        "method": "PUT",
        "url": "Location/"
      }
    },
    {
      "fullUrl": "Specimen/Covid19SpecimenExample",
      "resource": {
        "resourceType": "Specimen",
        "id": "Covid19SpecimenExample",
        "meta": {
          "profile": [
            "http://openhie.org/fhir/covid19-casereporting/StructureDefinition/covid19-specimen"
          ]
        },
        "text": {
          "status": "generated",
          "div": "<div xmlns=\"http://www.w3.org/1999/xhtml\"><p><b>Generated Narrative: Specimen</b><a name=\"Covid19SpecimenExample\"> </a></p><div style=\"display: inline-block; background-color: #d9e0e7; padding: 6px; margin: 4px; border: 1px solid #8da1b4; border-radius: 5px; line-height: 60%\"><p style=\"margin-bottom: 0px\">Resource Specimen \"Covid19SpecimenExample\" </p><p style=\"margin-bottom: 0px\">Profile: <a href=\"StructureDefinition-covid19-specimen.html\">Covid19 Specimen</a></p></div><p><b>identifier</b>: id: SPECIMEN109191879</p><p><b>type</b>: Nasopharyngeal swab <span style=\"background: LightGoldenRodYellow; margin: 4px; border: 1px solid khaki\"> (<a href=\"https://browser.ihtsdotools.org/\">SNOMED CT</a>#258500001)</span></p><p><b>subject</b>: <a href=\"#Patient_Covid19PatientExample\">See above (Patient/Covid19PatientExample)</a></p><h3>Collections</h3><table class=\"grid\"><tr><td>-</td><td><b>Collected[x]</b></td></tr><tr><td>*</td><td>2022-07-28</td></tr></table></div>"
        },
        "identifier": [
          {
            "system": "http://covid19laborder.org/specimen",
            "value": "SPECIMEN109191879"
          }
        ],
        "type": {
          "coding": [
            {
              "system": "http://snomed.info/sct",
              "code": "258500001"
            }
          ]
        },
        "subject": {
          "reference": "Patient/Covid19PatientExample"
        },
        "collection": {
          "collectedDateTime": "2022-07-28"
        }
      },
      "request": {
        "method": "PUT",
        "url": "Specimen/"
      }
    },
    {
      "fullUrl": "Observation/Covid19TestResultExample",
      "resource": {
        "resourceType": "Observation",
        "id": "Covid19TestResultExample",
        "meta": {
          "profile": [
            "http://openhie.org/fhir/covid19-casereporting/StructureDefinition/covid19-test-results"
          ]
        },
        "text": {
          "status": "generated",
          "div": "<div xmlns=\"http://www.w3.org/1999/xhtml\"><p><b>Generated Narrative: Observation</b><a name=\"Covid19TestResultExample\"> </a></p><div style=\"display: inline-block; background-color: #d9e0e7; padding: 6px; margin: 4px; border: 1px solid #8da1b4; border-radius: 5px; line-height: 60%\"><p style=\"margin-bottom: 0px\">Resource Observation \"Covid19TestResultExample\" </p><p style=\"margin-bottom: 0px\">Profile: <a href=\"StructureDefinition-covid19-test-results.html\">Covid19 Lab Results</a></p></div><p><b>status</b>: final</p><p><b>code</b>: 94558-4 <span style=\"background: LightGoldenRodYellow; margin: 4px; border: 1px solid khaki\"> (loinc.org#94558-4)</span></p><p><b>subject</b>: <a href=\"#Patient_Covid19PatientExample\">See above (Patient/Covid19PatientExample)</a></p><p><b>encounter</b>: <a href=\"#Encounter_Covid19AssessmentEncounterExample\">See above (Encounter/Covid19AssessmentEncounterExample)</a></p><p><b>effective</b>: 2022-07-28</p><p><b>value</b>: Positive <span style=\"background: LightGoldenRodYellow; margin: 4px; border: 1px solid khaki\"> (<a href=\"https://browser.ihtsdotools.org/\">SNOMED CT</a>#10828004)</span></p></div>"
        },
        "status": "final",
        "code": {
          "coding": [
            {
              "system": "https://loinc.org",
              "code": "94558-4"
            }
          ]
        },
        "subject": {
          "reference": "Patient/Covid19PatientExample"
        },
        "encounter": {
          "reference": "Encounter/Covid19AssessmentEncounterExample"
        },
        "effectiveDateTime": "2022-07-28",
        "valueCodeableConcept": {
          "coding": [
            {
              "system": "http://snomed.info/sct",
              "code": "10828004"
            }
          ]
        }
      },
      "request": {
        "method": "PUT",
        "url": "Observation/"
      }
    }
  ]
}