<?xml version="1.0" encoding="UTF-8"?>

<Bundle xmlns="http://hl7.org/fhir">
  <id value="CaresSubmitLaborderBundleExample"/>
  <type value="transaction"/>
  <entry>
    <fullUrl value="Task/LabOrderTaskExample"/>
    <resource>
      <Task>
        <id value="LabOrderTaskExample"/>
        <text>
          <status value="generated"/><div xmlns="http://www.w3.org/1999/xhtml"><p><b>Generated Narrative: Task</b><a name="LabOrderTaskExample"> </a></p><div style="display: inline-block; background-color: #d9e0e7; padding: 6px; margin: 4px; border: 1px solid #8da1b4; border-radius: 5px; line-height: 60%"><p style="margin-bottom: 0px">Resource Task "LabOrderTaskExample" </p></div><p><b>identifier</b>: id: ORDER12345</p><p><b>basedOn</b>: <a href="#ServiceRequest_Covid19LabOrderExample">See above (ServiceRequest/Covid19LabOrderExample)</a></p><p><b>status</b>: requested</p><p><b>intent</b>: order</p><p><b>executionPeriod</b>: 2022-11-09 --&gt; (ongoing)</p><p><b>lastModified</b>: 2015-02-07</p><p><b>requester</b>: <a href="Organization-Covid19OrganizationExample.html">Organization/Covid19OrganizationExample</a> "Covid19 Organization"</p><p><b>owner</b>: <a href="Organization-Covid19OrganizationExample.html">Organization/Covid19OrganizationExample</a> "Covid19 Organization"</p></div>
        </text>
        <identifier>
          <system value="http://openhie.org/fhir/covid19-casereporting/lab-integration/test-order-number"/>
          <value value="ORDER12345"/>
        </identifier>
        <basedOn>
          <reference value="ServiceRequest/Covid19LabOrderExample"/>
        </basedOn>
        <status value="requested"/>
        <intent value="order"/>
        <executionPeriod>
          <start value="2022-11-09"/>
        </executionPeriod>
        <lastModified value="2015-02-07"/>
        <requester>
          <reference value="Organization/Covid19OrganizationExample"/>
        </requester>
        <owner>
          <reference value="Organization/Covid19OrganizationExample"/>
        </owner>
      </Task>
    </resource>
    <request>
      <method value="PUT"/>
      <url value="Task/LabOrderTaskExample"/>
    </request>
  </entry>
  <entry>
    <fullUrl value="Encounter/Covid19AssessmentEncounterExample"/>
    <resource>
      <Encounter>
        <id value="Covid19AssessmentEncounterExample"/>
        <meta>
          <profile value="http://openhie.org/fhir/covid19-casereporting/StructureDefinition/covid19-encounter"/>
        </meta>
        <text>
          <status value="extensions"/><div xmlns="http://www.w3.org/1999/xhtml"><p><b>Generated Narrative: Encounter</b><a name="Covid19AssessmentEncounterExample"> </a></p><div style="display: inline-block; background-color: #d9e0e7; padding: 6px; margin: 4px; border: 1px solid #8da1b4; border-radius: 5px; line-height: 60%"><p style="margin-bottom: 0px">Resource Encounter "Covid19AssessmentEncounterExample" </p><p style="margin-bottom: 0px">Profile: <a href="StructureDefinition-covid19-encounter.html">Covid19 Assessment Encounter</a></p></div><p><b>Covid19 date of next vaccination</b>: 2022-07-28</p><p><b>status</b>: finished</p><p><b>class</b>: short stay (Details: http://terminology.hl7.org/CodeSystem/v3-ActCode code SS = 'short stay', stated as 'null')</p><p><b>subject</b>: <a href="#Patient_Covid19PatientExample">See above (Patient/Covid19PatientExample)</a></p><p><b>period</b>: 2022-07-28 --&gt; 2022-08-15</p><p><b>reasonCode</b>: Person exposed to disease (person) <span style="background: LightGoldenRodYellow; margin: 4px; border: 1px solid khaki"> (<a href="https://browser.ihtsdotools.org/">SNOMED CT</a>#428792000)</span></p></div>
        </text>
        <extension url="http://openhie.org/fhir/covid19-casereporting/StructureDefinition/next-visit">
          <valueDateTime value="2022-07-28"/>
        </extension>
        <status value="finished"/>
        <class>
          <system value="http://terminology.hl7.org/CodeSystem/v3-ActCode"/>
          <code value="SS"/>
        </class>
        <subject>
          <reference value="Patient/Covid19PatientExample"/>
        </subject>
        <period>
          <start value="2022-07-28"/>
          <end value="2022-08-15"/>
        </period>
        <reasonCode>
          <coding>
            <system value="http://snomed.info/sct"/>
            <code value="428792000"/>
          </coding>
        </reasonCode>
      </Encounter>
    </resource>
    <request>
      <method value="PUT"/>
      <url value="Encounter/Covid19AssessmentEncounterExample"/>
    </request>
  </entry>
  <entry>
    <fullUrl value="Location/Covid19ServiceRequestLocationExample"/>
    <resource>
      <Location>
        <id value="Covid19ServiceRequestLocationExample"/>
        <meta>
          <profile value="http://openhie.org/fhir/covid19-casereporting/StructureDefinition/covid19-service-request-location"/>
        </meta>
        <text>
          <status value="generated"/><div xmlns="http://www.w3.org/1999/xhtml"><p><b>Generated Narrative: Location</b><a name="Covid19ServiceRequestLocationExample"> </a></p><div style="display: inline-block; background-color: #d9e0e7; padding: 6px; margin: 4px; border: 1px solid #8da1b4; border-radius: 5px; line-height: 60%"><p style="margin-bottom: 0px">Resource Location "Covid19ServiceRequestLocationExample" </p><p style="margin-bottom: 0px">Profile: <a href="StructureDefinition-covid19-service-request-location.html">Covid19 Service Request Location</a></p></div><p><b>name</b>: Covid19 Location</p><p><b>address</b>: Cares city 1 Cares state 1 Cares country 1 </p></div>
        </text>
        <name value="Covid19 Location"/>
        <address>
          <city value="Cares city 1"/>
          <district value="Cares district 1"/>
          <state value="Cares state 1"/>
          <country value="Cares country 1"/>
        </address>
      </Location>
    </resource>
    <request>
      <method value="PUT"/>
      <url value="Location/Covid19ServiceRequestLocationExample"/>
    </request>
  </entry>
  <entry>
    <fullUrl value="ServiceRequest/Covid19LabOrderExample"/>
    <resource>
      <ServiceRequest>
        <id value="Covid19LabOrderExample"/>
        <meta>
          <profile value="http://openhie.org/fhir/covid19-casereporting/StructureDefinition/covid19-lab-order"/>
        </meta>
        <text>
          <status value="generated"/><div xmlns="http://www.w3.org/1999/xhtml"><p><b>Generated Narrative: ServiceRequest</b><a name="Covid19LabOrderExample"> </a></p><div style="display: inline-block; background-color: #d9e0e7; padding: 6px; margin: 4px; border: 1px solid #8da1b4; border-radius: 5px; line-height: 60%"><p style="margin-bottom: 0px">Resource ServiceRequest "Covid19LabOrderExample" </p><p style="margin-bottom: 0px">Profile: <a href="StructureDefinition-covid19-lab-order.html">Covid19 Lab Order</a></p></div><p><b>identifier</b>: id: ORDER12345</p><p><b>status</b>: revoked</p><p><b>intent</b>: order</p><p><b>doNotPerform</b>: true</p><p><b>code</b>: 100156-9 <span style="background: LightGoldenRodYellow; margin: 4px; border: 1px solid khaki"> (loinc.org#100156-9)</span></p><p><b>subject</b>: <a href="#Patient_Covid19PatientExample">See above (Patient/Covid19PatientExample)</a></p><p><b>encounter</b>: <a href="#Encounter_Covid19AssessmentEncounterExample">See above (Encounter/Covid19AssessmentEncounterExample)</a></p><p><b>occurrence</b>: 2012-01-05</p><p><b>requester</b>: <a href="#Practitioner_PractitionerExample">See above (Practitioner/PractitionerExample)</a></p><p><b>locationReference</b>: <a href="#Location_Covid19ServiceRequestLocationExample">See above (Location/Covid19ServiceRequestLocationExample)</a></p><p><b>reasonCode</b>: Blood specimen with anticoagulant <span style="background: LightGoldenRodYellow; margin: 4px; border: 1px solid khaki"> (<a href="https://browser.ihtsdotools.org/">SNOMED CT</a>#441510007)</span></p><p><b>specimen</b>: <a href="#Specimen_Covid19SpecimenExample">See above (Specimen/Covid19SpecimenExample)</a></p></div>
        </text>
        <identifier>
          <system value="http://covid19laborder.org/order"/>
          <value value="ORDER12345"/>
        </identifier>
        <status value="revoked"/>
        <intent value="order"/>
        <doNotPerform value="true"/>
        <code>
          <coding>
            <system value="https://loinc.org"/>
            <code value="100156-9"/>
          </coding>
        </code>
        <subject>
          <reference value="Patient/Covid19PatientExample"/>
        </subject>
        <encounter>
          <reference value="Encounter/Covid19AssessmentEncounterExample"/>
        </encounter>
        <occurrenceDateTime value="2012-01-05"/>
        <requester>
          <reference value="Practitioner/PractitionerExample"/>
        </requester>
        <locationReference>
          <reference value="Location/Covid19ServiceRequestLocationExample"/>
        </locationReference>
        <reasonCode>
          <coding>
            <system value="http://snomed.info/sct"/>
            <code value="441510007"/>
          </coding>
        </reasonCode>
        <specimen>
          <reference value="Specimen/Covid19SpecimenExample"/>
        </specimen>
      </ServiceRequest>
    </resource>
    <request>
      <method value="PUT"/>
      <url value="ServiceRequest/Covid19LabOrderExample"/>
    </request>
  </entry>
  <entry>
    <fullUrl value="Practitioner/PractitionerExample"/>
    <resource>
      <Practitioner>
        <id value="PractitionerExample"/>
        <text>
          <status value="generated"/><div xmlns="http://www.w3.org/1999/xhtml"><p><b>Generated Narrative: Practitioner</b><a name="PractitionerExample"> </a></p><div style="display: inline-block; background-color: #d9e0e7; padding: 6px; margin: 4px; border: 1px solid #8da1b4; border-radius: 5px; line-height: 60%"><p style="margin-bottom: 0px">Resource Practitioner "PractitionerExample" </p></div><p><b>name</b>: Joe Smith </p><p><b>telecom</b>: ph: 27 53 765 2509</p></div>
        </text>
        <name>
          <family value="Smith"/>
          <given value="Joe"/>
        </name>
        <telecom>
          <system value="phone"/>
          <value value="27 53 765 2509"/>
        </telecom>
      </Practitioner>
    </resource>
    <request>
      <method value="PUT"/>
      <url value="Practitioner/PractitionerExample"/>
    </request>
  </entry>
  <entry>
    <fullUrl value="Patient/Covid19PatientExample"/>
    <resource>
      <Patient>
        <id value="Covid19PatientExample"/>
        <meta>
          <profile value="http://openhie.org/fhir/covid19-casereporting/StructureDefinition/covid19-patient"/>
        </meta>
        <text>
          <status value="generated"/><div xmlns="http://www.w3.org/1999/xhtml"><p><b>Generated Narrative: Patient</b><a name="Covid19PatientExample"> </a></p><div style="display: inline-block; background-color: #d9e0e7; padding: 6px; margin: 4px; border: 1px solid #8da1b4; border-radius: 5px; line-height: 60%"><p style="margin-bottom: 0px">Resource Patient "Covid19PatientExample" </p><p style="margin-bottom: 0px">Profile: <a href="StructureDefinition-covid19-patient.html">Covid19 Patient</a></p></div><p><b>identifier</b>: id: PASSPORT1234567, id: NAT1234567, id: EMR1234567</p><p><b>active</b>: true</p><p><b>name</b>: Jane Smith (OFFICIAL)</p><p><b>telecom</b>: <a href="tel:+27825556666">+27825556666</a></p><p><b>gender</b>: female</p><p><b>birthDate</b>: 1986-06-04</p><p><b>address</b>: Cape Town Western Province South Africa </p><p><b>maritalStatus</b>: Divorced <span style="background: LightGoldenRodYellow; margin: 4px; border: 1px solid khaki"> (<a href="http://terminology.hl7.org/4.0.0/CodeSystem-v3-MaritalStatus.html">MaritalStatus</a>#D)</span></p><h3>Contacts</h3><table class="grid"><tr><td>-</td><td><b>Relationship</b></td><td><b>Name</b></td><td><b>Telecom</b></td></tr><tr><td>*</td><td>Next-of-Kin <span style="background: LightGoldenRodYellow; margin: 4px; border: 1px solid khaki"> (<a href="http://terminology.hl7.org/4.0.0/CodeSystem-v2-0131.html">contactRole2</a>#N)</span></td><td>John </td><td><a href="tel:+27825556667">+27825556667</a></td></tr></table><p><b>managingOrganization</b>: <a href="Organization-Covid19OrganizationExample.html">Organization/Covid19OrganizationExample</a> "Covid19 Organization"</p></div>
        </text>
        <identifier>
          <system value="http://openhie.org/fhir/covid19-casereporting/identifier/passport"/>
          <value value="PASSPORT1234567"/>
        </identifier>
        <identifier>
          <system value="http://openhie.org/fhir/covid19-casereporting/identifier/nid"/>
          <value value="NAT1234567"/>
        </identifier>
        <identifier>
          <system value="http://openhie.org/fhir/covid19-casereporting/identifier/facility"/>
          <value value="EMR1234567"/>
        </identifier>
        <active value="true"/>
        <name>
          <use value="official"/>
          <family value="Smith"/>
          <given value="Jane"/>
        </name>
        <telecom>
          <system value="phone"/>
          <value value="+27825556666"/>
        </telecom>
        <gender value="female"/>
        <birthDate value="1986-06-04"/>
        <address>
          <city value="Cape Town"/>
          <district value="City of Cape Town"/>
          <state value="Western Province"/>
          <country value="South Africa"/>
        </address>
        <maritalStatus>
          <coding>
            <system value="http://terminology.hl7.org/CodeSystem/v3-MaritalStatus"/>
            <code value="D"/>
          </coding>
        </maritalStatus>
        <contact>
          <relationship>
            <coding>
              <system value="http://terminology.hl7.org/CodeSystem/v2-0131"/>
              <code value="N"/>
            </coding>
          </relationship>
          <name>
            <family value="John"/>
          </name>
          <telecom>
            <system value="phone"/>
            <value value="+27825556667"/>
          </telecom>
        </contact>
        <managingOrganization>
          <reference value="Organization/Covid19OrganizationExample"/>
        </managingOrganization>
      </Patient>
    </resource>
    <request>
      <method value="PUT"/>
      <url value="Patient/Covid19PatientExample"/>
    </request>
  </entry>
  <entry>
    <fullUrl value="Specimen/Covid19SpecimenExample"/>
    <resource>
      <Specimen>
        <id value="Covid19SpecimenExample"/>
        <meta>
          <profile value="http://openhie.org/fhir/covid19-casereporting/StructureDefinition/covid19-specimen"/>
        </meta>
        <text>
          <status value="generated"/><div xmlns="http://www.w3.org/1999/xhtml"><p><b>Generated Narrative: Specimen</b><a name="Covid19SpecimenExample"> </a></p><div style="display: inline-block; background-color: #d9e0e7; padding: 6px; margin: 4px; border: 1px solid #8da1b4; border-radius: 5px; line-height: 60%"><p style="margin-bottom: 0px">Resource Specimen "Covid19SpecimenExample" </p><p style="margin-bottom: 0px">Profile: <a href="StructureDefinition-covid19-specimen.html">Covid19 Specimen</a></p></div><p><b>identifier</b>: id: SPECIMEN109191879</p><p><b>type</b>: Nasopharyngeal swab <span style="background: LightGoldenRodYellow; margin: 4px; border: 1px solid khaki"> (<a href="https://browser.ihtsdotools.org/">SNOMED CT</a>#258500001)</span></p><p><b>subject</b>: <a href="#Patient_Covid19PatientExample">See above (Patient/Covid19PatientExample)</a></p><h3>Collections</h3><table class="grid"><tr><td>-</td><td><b>Collected[x]</b></td></tr><tr><td>*</td><td>2022-07-28</td></tr></table></div>
        </text>
        <identifier>
          <system value="http://covid19laborder.org/specimen"/>
          <value value="SPECIMEN109191879"/>
        </identifier>
        <type>
          <coding>
            <system value="http://snomed.info/sct"/>
            <code value="258500001"/>
          </coding>
        </type>
        <subject>
          <reference value="Patient/Covid19PatientExample"/>
        </subject>
        <collection>
          <collectedDateTime value="2022-07-28"/>
        </collection>
      </Specimen>
    </resource>
    <request>
      <method value="PUT"/>
      <url value="Specimen/Covid19SpecimenExample"/>
    </request>
  </entry>
</Bundle>