<?xml version="1.0" encoding="UTF-8"?>

<Bundle xmlns="http://hl7.org/fhir">
  <id value="CaresSubmitLabResultBundleExample"/>
  <type value="transaction"/>
  <entry>
    <fullUrl value="Task/LabResultTaskExample"/>
    <resource>
      <Task>
        <id value="LabResultTaskExample"/>
        <text>
          <status value="generated"/><div xmlns="http://www.w3.org/1999/xhtml"><p><b>Generated Narrative: Task</b><a name="LabResultTaskExample"> </a></p><div style="display: inline-block; background-color: #d9e0e7; padding: 6px; margin: 4px; border: 1px solid #8da1b4; border-radius: 5px; line-height: 60%"><p style="margin-bottom: 0px">Resource Task &quot;LabResultTaskExample&quot; </p></div><p><b>identifier</b>: id: ORDER12345</p><p><b>basedOn</b>: <a href="ServiceRequest-Covid19LabOrderExample.html">ServiceRequest/Covid19LabOrderExample</a></p><p><b>status</b>: completed</p><p><b>intent</b>: order</p><p><b>executionPeriod</b>: 2022-11-09 --&gt; (ongoing)</p><p><b>lastModified</b>: 2015-02-07</p><p><b>requester</b>: <a href="Organization-Covid19OrganizationExample.html">Organization/Covid19OrganizationExample</a> &quot;Covid19 Organization&quot;</p><p><b>owner</b>: <a href="Organization-Covid19OrganizationExample.html">Organization/Covid19OrganizationExample</a> &quot;Covid19 Organization&quot;</p><h3>Outputs</h3><table class="grid"><tr><td>-</td><td><b>Type</b></td><td><b>Value[x]</b></td></tr><tr><td>*</td><td>result <span style="background: LightGoldenRodYellow; margin: 4px; border: 1px solid khaki"> (task-output#result)</span></td><td><a href="#DiagnosticReport_Covid19LabResultsDiagnosticReportExample">See above (DiagnosticReport/Covid19LabResultsDiagnosticReportExample)</a></td></tr></table></div>
        </text>
        <identifier>
          <system value="http://openhie.org/fhir/covid19-casereporting/lab-integration/test-order-number"/>
          <value value="ORDER12345"/>
        </identifier>
        <basedOn>
          <reference value="ServiceRequest/Covid19LabOrderExample"/>
        </basedOn>
        <status value="completed"/>
        <intent value="order"/>
        <executionPeriod>
          <start value="2022-11-09"/>
        </executionPeriod>
        <lastModified value="2015-02-07"/>
        <requester>
          <reference value="Organization/Covid19OrganizationExample"/>
        </requester>
        <owner>
          <reference value="Organization/Covid19OrganizationExample"/>
        </owner>
        <output>
          <type>
            <coding>
              <system value="http://openhie.org/fhir/covid19-casereporting/lab-integration/task-output"/>
              <code value="result"/>
            </coding>
          </type>
          <valueReference>
            <reference value="DiagnosticReport/Covid19LabResultsDiagnosticReportExample"/>
          </valueReference>
        </output>
      </Task>
    </resource>
    <request>
      <method value="PUT"/>
      <url value="Task/LabResultTaskExample"/>
    </request>
  </entry>
  <entry>
    <fullUrl value="DiagnosticReport/Covid19LabResultsDiagnosticReportExample"/>
    <resource>
      <DiagnosticReport>
        <id value="Covid19LabResultsDiagnosticReportExample"/>
        <text>
          <status value="generated"/><div xmlns="http://www.w3.org/1999/xhtml"><p><b>Generated Narrative: DiagnosticReport</b><a name="Covid19LabResultsDiagnosticReportExample"> </a></p><div style="display: inline-block; background-color: #d9e0e7; padding: 6px; margin: 4px; border: 1px solid #8da1b4; border-radius: 5px; line-height: 60%"><p style="margin-bottom: 0px">Resource DiagnosticReport &quot;Covid19LabResultsDiagnosticReportExample&quot; </p></div><p><b>basedOn</b>: <a href="ServiceRequest-Covid19LabOrderExample.html">ServiceRequest/Covid19LabOrderExample</a></p><p><b>status</b>: final</p><p><b>code</b>: 94558-4 <span style="background: LightGoldenRodYellow; margin: 4px; border: 1px solid khaki"> (loinc.org#94558-4)</span></p><p><b>subject</b>: <a href="Patient-Covid19PatientExample.html">Patient/Covid19PatientExample</a> &quot; SMITH&quot;</p><p><b>performer</b>: <a href="#Practitioner_PractitionerExample">See above (Practitioner/PractitionerExample)</a></p><p><b>result</b>: <a href="#Observation_Covid19TestResultExample">See above (Observation/Covid19TestResultExample)</a></p><p><b>conclusion</b>: Some textual conclusion</p></div>
        </text>
        <basedOn>
          <reference value="ServiceRequest/Covid19LabOrderExample"/>
        </basedOn>
        <status value="final"/>
        <code>
          <coding>
            <system value="https://loinc.org"/>
            <code value="94558-4"/>
          </coding>
        </code>
        <subject>
          <reference value="Patient/Covid19PatientExample"/>
        </subject>
        <performer>
          <reference value="Practitioner/PractitionerExample"/>
        </performer>
        <result>
          <reference value="Observation/Covid19TestResultExample"/>
        </result>
        <conclusion value="Some textual conclusion"/>
      </DiagnosticReport>
    </resource>
    <request>
      <method value="PUT"/>
      <url value="DiagnosticReport/Covid19LabResultsDiagnosticReportExample"/>
    </request>
  </entry>
  <entry>
    <fullUrl value="Practitioner/PractitionerExample"/>
    <resource>
      <Practitioner>
        <id value="PractitionerExample"/>
        <text>
          <status value="generated"/><div xmlns="http://www.w3.org/1999/xhtml"><p><b>Generated Narrative: Practitioner</b><a name="PractitionerExample"> </a></p><div style="display: inline-block; background-color: #d9e0e7; padding: 6px; margin: 4px; border: 1px solid #8da1b4; border-radius: 5px; line-height: 60%"><p style="margin-bottom: 0px">Resource Practitioner &quot;PractitionerExample&quot; </p></div><p><b>name</b>: Joe Smith </p><p><b>telecom</b>: ph: 27 53 765 2509</p></div>
        </text>
        <name>
          <family value="Smith"/>
          <given value="Joe"/>
        </name>
        <telecom>
          <system value="phone"/>
          <value value="27 53 765 2509"/>
        </telecom>
      </Practitioner>
    </resource>
    <request>
      <method value="PUT"/>
      <url value="Practitioner/PractitionerExample"/>
    </request>
  </entry>
  <entry>
    <fullUrl value="Specimen/Covid19SpecimenLabResultExample"/>
    <resource>
      <Specimen>
        <id value="Covid19SpecimenLabResultExample"/>
        <meta>
          <profile value="http://openhie.org/fhir/covid19-casereporting/StructureDefinition/covid19-specimen"/>
        </meta>
        <text>
          <status value="generated"/><div xmlns="http://www.w3.org/1999/xhtml"><p><b>Generated Narrative: Specimen</b><a name="Covid19SpecimenLabResultExample"> </a></p><div style="display: inline-block; background-color: #d9e0e7; padding: 6px; margin: 4px; border: 1px solid #8da1b4; border-radius: 5px; line-height: 60%"><p style="margin-bottom: 0px">Resource Specimen &quot;Covid19SpecimenLabResultExample&quot; </p><p style="margin-bottom: 0px">Profile: <a href="StructureDefinition-covid19-specimen.html">Covid19 Specimen</a></p></div><p><b>identifier</b>: id: SPECIMEN109191879</p><p><b>type</b>: Nasopharyngeal swab <span style="background: LightGoldenRodYellow; margin: 4px; border: 1px solid khaki"> (<a href="https://browser.ihtsdotools.org/">SNOMED CT</a>#258500001)</span></p><p><b>subject</b>: <a href="Patient-Covid19PatientExample.html">Patient/Covid19PatientExample</a> &quot; SMITH&quot;</p><p><b>receivedTime</b>: 2022-07-28 01:28:17-0500</p><h3>Collections</h3><table class="grid"><tr><td>-</td><td><b>Collected[x]</b></td></tr><tr><td>*</td><td>2022-07-28</td></tr></table><h3>Processings</h3><table class="grid"><tr><td>-</td><td><b>Time[x]</b></td></tr><tr><td>*</td><td>2022-07-28</td></tr></table><p><b>note</b>: additional notes here (By Organization/Covid19OrganizationExample @Feb 7, 2015, 6:28:17 PM)</p></div>
        </text>
        <identifier>
          <system value="http://covid19laborder.org/specimen"/>
          <value value="SPECIMEN109191879"/>
        </identifier>
        <type>
          <coding>
            <system value="http://snomed.info/sct"/>
            <code value="258500001"/>
          </coding>
        </type>
        <subject>
          <reference value="Patient/Covid19PatientExample"/>
        </subject>
        <receivedTime value="2022-07-28T13:28:17-05:00"/>
        <collection>
          <collectedDateTime value="2022-07-28"/>
        </collection>
        <processing>
          <timeDateTime value="2022-07-28"/>
        </processing>
        <note>
          <authorReference>
            <reference value="Organization/Covid19OrganizationExample"/>
          </authorReference>
          <time value="2015-02-07T13:28:17-05:00"/>
          <text value="additional notes here"/>
        </note>
      </Specimen>
    </resource>
    <request>
      <method value="PUT"/>
      <url value="Specimen/Covid19SpecimenLabResultExample"/>
    </request>
  </entry>
  <entry>
    <fullUrl value="Observation/Covid19TestResultExample"/>
    <resource>
      <Observation>
        <id value="Covid19TestResultExample"/>
        <meta>
          <profile value="http://openhie.org/fhir/covid19-casereporting/StructureDefinition/covid19-test-results"/>
        </meta>
        <text>
          <status value="generated"/><div xmlns="http://www.w3.org/1999/xhtml"><p><b>Generated Narrative: Observation</b><a name="Covid19TestResultExample"> </a></p><div style="display: inline-block; background-color: #d9e0e7; padding: 6px; margin: 4px; border: 1px solid #8da1b4; border-radius: 5px; line-height: 60%"><p style="margin-bottom: 0px">Resource Observation &quot;Covid19TestResultExample&quot; </p><p style="margin-bottom: 0px">Profile: <a href="StructureDefinition-covid19-test-results.html">Covid19 Lab Results</a></p></div><p><b>status</b>: final</p><p><b>code</b>: 94558-4 <span style="background: LightGoldenRodYellow; margin: 4px; border: 1px solid khaki"> (loinc.org#94558-4)</span></p><p><b>subject</b>: <a href="Patient-Covid19PatientExample.html">Patient/Covid19PatientExample</a> &quot; SMITH&quot;</p><p><b>encounter</b>: <a href="Encounter-Covid19AssessmentEncounterExample.html">Encounter/Covid19AssessmentEncounterExample</a></p><p><b>effective</b>: 2022-07-28</p><p><b>value</b>: Positive <span style="background: LightGoldenRodYellow; margin: 4px; border: 1px solid khaki"> (<a href="https://browser.ihtsdotools.org/">SNOMED CT</a>#10828004)</span></p></div>
        </text>
        <status value="final"/>
        <code>
          <coding>
            <system value="https://loinc.org"/>
            <code value="94558-4"/>
          </coding>
        </code>
        <subject>
          <reference value="Patient/Covid19PatientExample"/>
        </subject>
        <encounter>
          <reference value="Encounter/Covid19AssessmentEncounterExample"/>
        </encounter>
        <effectiveDateTime value="2022-07-28"/>
        <valueCodeableConcept>
          <coding>
            <system value="http://snomed.info/sct"/>
            <code value="10828004"/>
          </coding>
        </valueCodeableConcept>
      </Observation>
    </resource>
    <request>
      <method value="PUT"/>
      <url value="Observation/Covid19TestResultExample"/>
    </request>
  </entry>
</Bundle>