<?xml version="1.0" encoding="UTF-8"?>

<Bundle xmlns="http://hl7.org/fhir">
  <id value="Covid19BundleExample"/>
  <type value="document"/>
  <entry>
    <fullUrl value="Composition/Covid19CompositionExample"/>
    <resource>
      <Composition>
        <id value="Covid19CompositionExample"/>
        <meta>
          <profile value="http://example.com/fhir/example/StructureDefinition/covid19-composition"/>
        </meta>
        <text>
          <status value="generated"/><div xmlns="http://www.w3.org/1999/xhtml"><p><b>Generated Narrative: Composition</b></p><div style="display: inline-block; background-color: #d9e0e7; padding: 6px; margin: 4px; border: 1px solid #8da1b4; border-radius: 5px; line-height: 60%"><p style="margin-bottom: 0px">Resource Composition "Covid19CompositionExample" </p><p style="margin-bottom: 0px">Profile: <a href="StructureDefinition-covid19-composition.html">Covid19 Case Reporting Composition</a></p></div><p><b>identifier</b>: id: 1111</p><p><b>status</b>: final</p><p><b>type</b>: COVID-19 case report <span style="background: LightGoldenRodYellow; margin: 4px; border: 1px solid khaki"> (<a href="https://loinc.org/">LOINC</a>#95412-3)</span></p><p><b>date</b>: 2022-08-04</p><p><b>author</b>: <a href="Organization-Covid19OrganizationExample.html">Organization/Covid19OrganizationExample</a> "Covid19 Organization"</p><p><b>title</b>: Covid19 Case Report</p></div>
        </text>
        <identifier>
          <system value="http://openhie.org/fhir/covid19-casereporting/identifier/covid19-case-report"/>
          <value value="1111"/>
        </identifier>
        <status value="final"/>
        <type>
          <coding>
            <system value="http://loinc.org"/>
            <code value="95412-3"/>
          </coding>
        </type>
        <date value="2022-08-04"/>
        <author>
          <reference value="Organization/Covid19OrganizationExample"/>
        </author>
        <title value="Covid19 Case Report"/>
        <section>
          <title value="Client registration"/>
          <code>
            <coding>
              <system value="http://example.com/fhir/example/CodeSystem/cs-case-report-sections"/>
              <code value="CLIENT-REGISTRATION"/>
            </coding>
          </code>
          <entry>
            <reference value="Patient/Covid19PatientExample"/>
          </entry>
        </section>
        <section>
          <title value="Covid19 Assessment Encounter"/>
          <code>
            <coding>
              <system value="http://example.com/fhir/example/CodeSystem/cs-case-report-sections"/>
              <code value="COVID-ASSESSMENT"/>
            </coding>
          </code>
          <entry>
            <reference value="Encounter/Covid19AssessmentEncounterExample"/>
          </entry>
          <entry>
            <reference value="Observation/Covid19ReasonforAssessmentExample"/>
          </entry>
          <entry>
            <reference value="Observation/Covid19PresentationExample"/>
          </entry>
          <entry>
            <reference value="Observation/Covid19SymptomExample"/>
          </entry>
          <entry>
            <reference value="Observation/Covid19ComorbidityPresentExample"/>
          </entry>
          <entry>
            <reference value="Condition/Covid19ConditionsComorbidityExample"/>
          </entry>
          <entry>
            <reference value="Condition/Covid19DiagnosisExample"/>
          </entry>
          <entry>
            <reference value="Condition/HIVDiagnosisExample"/>
          </entry>
          <entry>
            <reference value="Immunization/Covid19AssessmentVaccinationExample"/>
          </entry>
          <entry>
            <reference value="Observation/Covid19PatientOutcomeExample"/>
          </entry>
        </section>
        <section>
          <title value="Lab Order Management"/>
          <code>
            <coding>
              <system value="http://example.com/fhir/example/CodeSystem/cs-case-report-sections"/>
              <code value="LABORDER-MANAGEMENT"/>
            </coding>
          </code>
          <entry>
            <reference value="ServiceRequest/Covid19LabOrderExample"/>
          </entry>
          <entry>
            <reference value="Specimen/Covid19SpecimenExample"/>
          </entry>
          <entry>
            <reference value="DiagnosticReport/Covid19SpecimenCollectionExample"/>
          </entry>
          <entry>
            <reference value="Task/Covid19LabOrderCancellationExample"/>
          </entry>
          <entry>
            <reference value="Covid19LabResultsExamples"/>
          </entry>
        </section>
        <section>
          <title value="Covid 19 Vaccination"/>
          <code>
            <coding>
              <system value="http://example.com/fhir/example/CodeSystem/cs-case-report-sections"/>
              <code value="COVID-VACCINATION"/>
            </coding>
          </code>
          <entry>
            <reference value="Immunization/Covid19VaccinationExample"/>
          </entry>
        </section>
      </Composition>
    </resource>
  </entry>
  <entry>
    <fullUrl value="Composition/Covid19PatientExample"/>
    <resource>
      <Patient>
        <id value="Covid19PatientExample"/>
        <meta>
          <profile value="http://example.com/fhir/example/StructureDefinition/covid19-patient"/>
        </meta>
        <text>
          <status value="extensions"/><div xmlns="http://www.w3.org/1999/xhtml"><p><b>Generated Narrative: Patient</b></p><div style="display: inline-block; background-color: #d9e0e7; padding: 6px; margin: 4px; border: 1px solid #8da1b4; border-radius: 5px; line-height: 60%"><p style="margin-bottom: 0px">Resource Patient "Covid19PatientExample" </p><p style="margin-bottom: 0px">Profile: <a href="StructureDefinition-covid19-patient.html">Covid19 Patient</a></p></div><p><b>Client Ward Division</b>: Division 9087</p><p><b>Key population</b>: GENERAL-POPULATION <span style="background: LightGoldenRodYellow; margin: 4px; border: 1px solid khaki"> ([not stated]#GENERAL-POPULATION)</span></p><p><b>identifier</b>: id: PASSPORT1234567, id: NAT1234567, id: EMR1234567</p><p><b>active</b>: true</p><p><b>name</b>: Jane Smith (OFFICIAL)</p><p><b>telecom</b>: <a href="tel:+27825556666">+27825556666</a></p><p><b>gender</b>: female</p><p><b>birthDate</b>: 1986-06-04</p><p><b>address</b>: Cape Town Western Province South Africa </p><h3>Contacts</h3><table class="grid"><tr><td>-</td><td><b>Relationship</b></td><td><b>Name</b></td><td><b>Telecom</b></td></tr><tr><td>*</td><td>N <span style="background: LightGoldenRodYellow; margin: 4px; border: 1px solid khaki"> ([not stated]#N)</span></td><td>John </td><td>ph: -unknown-</td></tr></table><p><b>managingOrganization</b>: <a href="Organization-Covid19OrganizationExample.html">Organization/Covid19OrganizationExample</a> "Covid19 Organization"</p></div>
        </text>
        <extension url="http://example.com/fhir/example/StructureDefinition/client-ward-division">
          <valueString value="Division 9087"/>
        </extension>
        <extension url="http://example.com/fhir/example/StructureDefinition/key-population">
          <valueCodeableConcept>
            <coding>
              <code value="GENERAL-POPULATION"/>
            </coding>
          </valueCodeableConcept>
        </extension>
        <identifier>
          <system value="http://openhie.org/fhir/covid19-casereporting/identifier/passport"/>
          <value value="PASSPORT1234567"/>
        </identifier>
        <identifier>
          <system value="http://openhie.org/fhir/covid19-casereporting/identifier/nid"/>
          <value value="NAT1234567"/>
        </identifier>
        <identifier>
          <system value="http://openhie.org/fhir/covid19-casereporting/identifier/facility1"/>
          <value value="EMR1234567"/>
        </identifier>
        <active value="true"/>
        <name>
          <use value="official"/>
          <family value="Smith"/>
          <given value="Jane"/>
        </name>
        <telecom>
          <system value="phone"/>
          <value value="+27825556666"/>
        </telecom>
        <gender value="female"/>
        <birthDate value="1986-06-04"/>
        <address>
          <city value="Cape Town"/>
          <district value="City of Cape Town"/>
          <state value="Western Province"/>
          <country value="South Africa"/>
        </address>
        <contact>
          <relationship>
            <coding>
              <code value="N"/>
            </coding>
          </relationship>
          <name>
            <family value="John"/>
          </name>
          <telecom>
            <system value="phone"/>
          </telecom>
        </contact>
        <managingOrganization>
          <reference value="Organization/Covid19OrganizationExample"/>
        </managingOrganization>
      </Patient>
    </resource>
  </entry>
  <entry>
    <fullUrl value="Composition/Covid19AssessmentEncounterExample"/>
    <resource>
      <Encounter>
        <id value="Covid19AssessmentEncounterExample"/>
        <meta>
          <profile value="http://example.com/fhir/example/StructureDefinition/covid19-encounter"/>
        </meta>
        <text>
          <status value="extensions"/><div xmlns="http://www.w3.org/1999/xhtml"><p><b>Generated Narrative: Encounter</b></p><div style="display: inline-block; background-color: #d9e0e7; padding: 6px; margin: 4px; border: 1px solid #8da1b4; border-radius: 5px; line-height: 60%"><p style="margin-bottom: 0px">Resource Encounter "Covid19AssessmentEncounterExample" </p><p style="margin-bottom: 0px">Profile: <a href="StructureDefinition-covid19-encounter.html">Covid19 Assessment Encounter</a></p></div><p><b>Covid19 Vaccine Dose Received</b>: Yes <span style="background: LightGoldenRodYellow; margin: 4px; border: 1px solid khaki"> ([not stated]#Yes)</span></p><p><b>status</b>: finished</p><p><b>class</b>: SS (Details: [not stated] code SS = 'SS', stated as 'null')</p><p><b>subject</b>: <a href="#Patient_Covid19PatientExample">See above (Patient/Covid19PatientExample)</a></p><p><b>period</b>: 2022-07-28 --&gt; 2022-08-15</p></div>
        </text>
        <extension url="http://example.com/fhir/example/StructureDefinition/covid19-vaccine-dose-received">
          <valueCodeableConcept>
            <coding>
              <code value="Yes"/>
            </coding>
          </valueCodeableConcept>
        </extension>
        <status value="finished"/>
        <class>
          <code value="SS"/>
        </class>
        <subject>
          <reference value="Patient/Covid19PatientExample"/>
        </subject>
        <period>
          <start value="2022-07-28"/>
          <end value="2022-08-15"/>
        </period>
      </Encounter>
    </resource>
  </entry>
  <entry>
    <fullUrl value="Composition/Covid19ReasonforAssessmentExample"/>
    <resource>
      <Observation>
        <id value="Covid19ReasonforAssessmentExample"/>
        <meta>
          <profile value="http://example.com/fhir/example/StructureDefinition/covid19-reason-for-Assessment"/>
        </meta>
        <text>
          <status value="generated"/><div xmlns="http://www.w3.org/1999/xhtml"><p><b>Generated Narrative: Observation</b></p><div style="display: inline-block; background-color: #d9e0e7; padding: 6px; margin: 4px; border: 1px solid #8da1b4; border-radius: 5px; line-height: 60%"><p style="margin-bottom: 0px">Resource Observation "Covid19ReasonforAssessmentExample" </p><p style="margin-bottom: 0px">Profile: <a href="StructureDefinition-covid19-reason-for-Assessment.html">Covid19 Reason for Assessment</a></p></div><p><b>status</b>: final</p><p><b>code</b>: Comorbid condition <span style="background: LightGoldenRodYellow; margin: 4px; border: 1px solid khaki"> (<a href="https://loinc.org/">LOINC</a>#75618-9)</span></p><p><b>subject</b>: <a href="#Patient_Covid19PatientExample">See above (Patient/Covid19PatientExample)</a></p><p><b>encounter</b>: <a href="#Encounter_Covid19AssessmentEncounterExample">See above (Encounter/Covid19AssessmentEncounterExample)</a></p><p><b>value</b>: CaseContact <span style="background: LightGoldenRodYellow; margin: 4px; border: 1px solid khaki"> ([not stated]#CaseContact)</span></p></div>
        </text>
        <status value="final"/>
        <code>
          <coding>
            <system value="http://loinc.org"/>
            <code value="75618-9"/>
          </coding>
        </code>
        <subject>
          <reference value="Patient/Covid19PatientExample"/>
        </subject>
        <encounter>
          <reference value="Encounter/Covid19AssessmentEncounterExample"/>
        </encounter>
        <valueCodeableConcept>
          <coding>
            <code value="CaseContact"/>
          </coding>
        </valueCodeableConcept>
      </Observation>
    </resource>
  </entry>
  <entry>
    <fullUrl value="Composition/Covid19PresentationExample"/>
    <resource>
      <Observation>
        <id value="Covid19PresentationExample"/>
        <meta>
          <profile value="http://example.com/fhir/example/StructureDefinition/covid19-presentation"/>
        </meta>
        <text>
          <status value="generated"/><div xmlns="http://www.w3.org/1999/xhtml"><p><b>Generated Narrative: Observation</b></p><div style="display: inline-block; background-color: #d9e0e7; padding: 6px; margin: 4px; border: 1px solid #8da1b4; border-radius: 5px; line-height: 60%"><p style="margin-bottom: 0px">Resource Observation "Covid19PresentationExample" </p><p style="margin-bottom: 0px">Profile: <a href="StructureDefinition-covid19-presentation.html">Covid19 Presentation</a></p></div><p><b>status</b>: final</p><p><b>code</b>: Comorbid condition <span style="background: LightGoldenRodYellow; margin: 4px; border: 1px solid khaki"> (<a href="https://loinc.org/">LOINC</a>#75618-9)</span></p><p><b>subject</b>: <a href="#Patient_Covid19PatientExample">See above (Patient/Covid19PatientExample)</a></p><p><b>encounter</b>: <a href="#Encounter_Covid19AssessmentEncounterExample">See above (Encounter/Covid19AssessmentEncounterExample)</a></p><p><b>value</b>: Asymptomatic <span style="background: LightGoldenRodYellow; margin: 4px; border: 1px solid khaki"> ([not stated]#Asymptomatic)</span></p></div>
        </text>
        <status value="final"/>
        <code>
          <coding>
            <system value="http://loinc.org"/>
            <code value="75618-9"/>
          </coding>
        </code>
        <subject>
          <reference value="Patient/Covid19PatientExample"/>
        </subject>
        <encounter>
          <reference value="Encounter/Covid19AssessmentEncounterExample"/>
        </encounter>
        <valueCodeableConcept>
          <coding>
            <code value="Asymptomatic"/>
          </coding>
        </valueCodeableConcept>
      </Observation>
    </resource>
  </entry>
  <entry>
    <fullUrl value="Composition/Covid19SymptomExample"/>
    <resource>
      <Observation>
        <id value="Covid19SymptomExample"/>
        <meta>
          <profile value="http://example.com/fhir/example/StructureDefinition/covid19-symptom"/>
        </meta>
        <text>
          <status value="generated"/><div xmlns="http://www.w3.org/1999/xhtml"><p><b>Generated Narrative: Observation</b></p><div style="display: inline-block; background-color: #d9e0e7; padding: 6px; margin: 4px; border: 1px solid #8da1b4; border-radius: 5px; line-height: 60%"><p style="margin-bottom: 0px">Resource Observation "Covid19SymptomExample" </p><p style="margin-bottom: 0px">Profile: <a href="StructureDefinition-covid19-symptom.html">Covid19 Symptom</a></p></div><p><b>status</b>: final</p><p><b>code</b>: Comorbid condition <span style="background: LightGoldenRodYellow; margin: 4px; border: 1px solid khaki"> (<a href="https://loinc.org/">LOINC</a>#75618-9)</span></p><p><b>subject</b>: <a href="#Patient_Covid19PatientExample">See above (Patient/Covid19PatientExample)</a></p><p><b>encounter</b>: <a href="#Encounter_Covid19AssessmentEncounterExample">See above (Encounter/Covid19AssessmentEncounterExample)</a></p><p><b>value</b>: JointPain <span style="background: LightGoldenRodYellow; margin: 4px; border: 1px solid khaki"> ([not stated]#JointPain)</span></p></div>
        </text>
        <status value="final"/>
        <code>
          <coding>
            <system value="http://loinc.org"/>
            <code value="75618-9"/>
          </coding>
        </code>
        <subject>
          <reference value="Patient/Covid19PatientExample"/>
        </subject>
        <encounter>
          <reference value="Encounter/Covid19AssessmentEncounterExample"/>
        </encounter>
        <valueCodeableConcept>
          <coding>
            <code value="JointPain"/>
          </coding>
        </valueCodeableConcept>
      </Observation>
    </resource>
  </entry>
  <entry>
    <fullUrl value="Composition/Covid19ComorbidityPresentExample"/>
    <resource>
      <Observation>
        <id value="Covid19ComorbidityPresentExample"/>
        <text>
          <status value="generated"/><div xmlns="http://www.w3.org/1999/xhtml"><p><b>Generated Narrative: Observation</b></p><div style="display: inline-block; background-color: #d9e0e7; padding: 6px; margin: 4px; border: 1px solid #8da1b4; border-radius: 5px; line-height: 60%"><p style="margin-bottom: 0px">Resource Observation "Covid19ComorbidityPresentExample" </p></div><p><b>status</b>: final</p><p><b>code</b>: Comorbidities and coexisting conditions <span style="background: LightGoldenRodYellow; margin: 4px; border: 1px solid khaki"> (<a href="https://loinc.org/">LOINC</a>#83243-6)</span></p><p><b>subject</b>: <a href="#Patient_Covid19PatientExample">See above (Patient/Covid19PatientExample)</a></p><p><b>encounter</b>: <a href="#Encounter_Covid19AssessmentEncounterExample">See above (Encounter/Covid19AssessmentEncounterExample)</a></p><p><b>value</b>: Yes <span style="background: LightGoldenRodYellow; margin: 4px; border: 1px solid khaki"> ([not stated]#Yes)</span></p></div>
        </text>
        <status value="final"/>
        <code>
          <coding>
            <system value="http://loinc.org"/>
            <code value="83243-6"/>
          </coding>
        </code>
        <subject>
          <reference value="Patient/Covid19PatientExample"/>
        </subject>
        <encounter>
          <reference value="Encounter/Covid19AssessmentEncounterExample"/>
        </encounter>
        <valueCodeableConcept>
          <coding>
            <code value="Yes"/>
          </coding>
        </valueCodeableConcept>
      </Observation>
    </resource>
  </entry>
  <entry>
    <fullUrl value="Composition/Covid19ConditionsComorbidityExample"/>
    <resource>
      <Condition>
        <id value="Covid19ConditionsComorbidityExample"/>
        <meta>
          <profile value="http://example.com/fhir/example/StructureDefinition/covid19-conditions-comorbidity"/>
        </meta>
        <text>
          <status value="generated"/><div xmlns="http://www.w3.org/1999/xhtml"><p><b>Generated Narrative: Condition</b></p><div style="display: inline-block; background-color: #d9e0e7; padding: 6px; margin: 4px; border: 1px solid #8da1b4; border-radius: 5px; line-height: 60%"><p style="margin-bottom: 0px">Resource Condition "Covid19ConditionsComorbidityExample" </p><p style="margin-bottom: 0px">Profile: <a href="StructureDefinition-covid19-conditions-comorbidity.html">Covid19 Conditions or comorbidity</a></p></div><p><b>code</b>: Other <span style="background: LightGoldenRodYellow; margin: 4px; border: 1px solid khaki"> ([not stated]#Other)</span></p><p><b>subject</b>: <a href="#Patient_Covid19PatientExample">See above (Patient/Covid19PatientExample)</a></p><p><b>encounter</b>: <a href="#Encounter_Covid19AssessmentEncounterExample">See above (Encounter/Covid19AssessmentEncounterExample)</a></p><p><b>note</b>: Other condition details specified here</p></div>
        </text>
        <code>
          <coding>
            <code value="Other"/>
          </coding>
        </code>
        <subject>
          <reference value="Patient/Covid19PatientExample"/>
        </subject>
        <encounter>
          <reference value="Encounter/Covid19AssessmentEncounterExample"/>
        </encounter>
        <note>
          <text value="Other condition details specified here"/>
        </note>
      </Condition>
    </resource>
  </entry>
  <entry>
    <fullUrl value="Composition/Covid19DiagnosisExample"/>
    <resource>
      <Condition>
        <id value="Covid19DiagnosisExample"/>
        <text>
          <status value="generated"/><div xmlns="http://www.w3.org/1999/xhtml"><p><b>Generated Narrative: Condition</b></p><div style="display: inline-block; background-color: #d9e0e7; padding: 6px; margin: 4px; border: 1px solid #8da1b4; border-radius: 5px; line-height: 60%"><p style="margin-bottom: 0px">Resource Condition "Covid19DiagnosisExample" </p></div><p><b>code</b>: Confirmed <span style="background: LightGoldenRodYellow; margin: 4px; border: 1px solid khaki"> ([not stated]#Confirmed)</span></p><p><b>subject</b>: <a href="#Patient_Covid19PatientExample">See above (Patient/Covid19PatientExample)</a></p><p><b>encounter</b>: <a href="#Encounter_Covid19AssessmentEncounterExample">See above (Encounter/Covid19AssessmentEncounterExample)</a></p><p><b>recordedDate</b>: 2022-07-28</p></div>
        </text>
        <code>
          <coding>
            <code value="Confirmed"/>
          </coding>
        </code>
        <subject>
          <reference value="Patient/Covid19PatientExample"/>
        </subject>
        <encounter>
          <reference value="Encounter/Covid19AssessmentEncounterExample"/>
        </encounter>
        <recordedDate value="2022-07-28"/>
      </Condition>
    </resource>
  </entry>
  <entry>
    <fullUrl value="Composition/Covid19EverHospitalizedExample"/>
    <resource>
      <Observation>
        <id value="Covid19EverHospitalizedExample"/>
        <meta>
          <profile value="http://example.com/fhir/example/StructureDefinition/covid19-everhospitalized"/>
        </meta>
        <text>
          <status value="generated"/><div xmlns="http://www.w3.org/1999/xhtml"><p><b>Generated Narrative: Observation</b></p><div style="display: inline-block; background-color: #d9e0e7; padding: 6px; margin: 4px; border: 1px solid #8da1b4; border-radius: 5px; line-height: 60%"><p style="margin-bottom: 0px">Resource Observation "Covid19EverHospitalizedExample" </p><p style="margin-bottom: 0px">Profile: <a href="StructureDefinition-covid19-everhospitalized.html">Covid19 Ever Hospitalised</a></p></div><p><b>status</b>: final</p><p><b>code</b>: Comorbid condition <span style="background: LightGoldenRodYellow; margin: 4px; border: 1px solid khaki"> (<a href="https://loinc.org/">LOINC</a>#75618-9)</span></p><p><b>encounter</b>: <a href="#Encounter_Covid19AssessmentEncounterExample">See above (Encounter/Covid19AssessmentEncounterExample)</a></p><p><b>value</b>: Yes <span style="background: LightGoldenRodYellow; margin: 4px; border: 1px solid khaki"> ([not stated]#Yes)</span></p></div>
        </text>
        <status value="final"/>
        <code>
          <coding>
            <system value="http://loinc.org"/>
            <code value="75618-9"/>
          </coding>
        </code>
        <encounter>
          <reference value="Encounter/Covid19AssessmentEncounterExample"/>
        </encounter>
        <valueCodeableConcept>
          <coding>
            <code value="Yes"/>
          </coding>
        </valueCodeableConcept>
      </Observation>
    </resource>
  </entry>
  <entry>
    <fullUrl value="Composition/Covid19AssessmentVaccinationExample"/>
    <resource>
      <Immunization>
        <id value="Covid19AssessmentVaccinationExample"/>
        <meta>
          <profile value="http://example.com/fhir/example/StructureDefinition/covid19-assessment-vaccination"/>
        </meta>
        <text>
          <status value="extensions"/><div xmlns="http://www.w3.org/1999/xhtml"><p><b>Generated Narrative: Immunization</b></p><div style="display: inline-block; background-color: #d9e0e7; padding: 6px; margin: 4px; border: 1px solid #8da1b4; border-radius: 5px; line-height: 60%"><p style="margin-bottom: 0px">Resource Immunization "Covid19AssessmentVaccinationExample" </p><p style="margin-bottom: 0px">Profile: <a href="StructureDefinition-covid19-assessment-vaccination.html">Covid19 Vaccination info included as part of the Assessment</a></p></div><p><b>Vaccination source of info</b>: VaccineCard <span style="background: LightGoldenRodYellow; margin: 4px; border: 1px solid khaki"> ([not stated]#VaccineCard)</span></p><p><b>status</b>: not-done</p><p><b>vaccineCode</b>: PfizerBionTech <span style="background: LightGoldenRodYellow; margin: 4px; border: 1px solid khaki"> ([not stated]#PfizerBionTech)</span></p><p><b>patient</b>: <a href="#Patient_Covid19PatientExample">See above (Patient/Covid19PatientExample)</a></p><p><b>encounter</b>: <a href="#Encounter_Covid19AssessmentEncounterExample">See above (Encounter/Covid19AssessmentEncounterExample)</a></p><p><b>occurrence</b>: 2022-07-28</p><h3>ProtocolApplieds</h3><table class="grid"><tr><td>-</td><td><b>Extension</b></td><td><b>DoseNumber[x]</b></td></tr><tr><td>*</td><td></td><td>1</td></tr></table></div>
        </text>
        <extension url="http://example.com/fhir/example/StructureDefinition/vaccination-source-of-info">
          <valueCodeableConcept>
            <coding>
              <code value="VaccineCard"/>
            </coding>
          </valueCodeableConcept>
        </extension>
        <status value="not-done"/>
        <vaccineCode>
          <coding>
            <code value="PfizerBionTech"/>
          </coding>
        </vaccineCode>
        <patient>
          <reference value="Patient/Covid19PatientExample"/>
        </patient>
        <encounter>
          <reference value="Encounter/Covid19AssessmentEncounterExample"/>
        </encounter>
        <occurrenceDateTime value="2022-07-28"/>
        <protocolApplied>
          <extension url="http://example.com/fhir/example/StructureDefinition/covid19-vaccine-series">
            <valueCodeableConcept>
              <coding>
                <code value="Booster"/>
              </coding>
            </valueCodeableConcept>
          </extension>
          <doseNumberPositiveInt value="1"/>
        </protocolApplied>
      </Immunization>
    </resource>
  </entry>
  <entry>
    <fullUrl value="Composition/Covid19PatientOutcomeExample"/>
    <resource>
      <Observation>
        <id value="Covid19PatientOutcomeExample"/>
        <meta>
          <profile value="http://example.com/fhir/example/StructureDefinition/covid19-patient-outcome"/>
        </meta>
        <text>
          <status value="extensions"/><div xmlns="http://www.w3.org/1999/xhtml"><p><b>Generated Narrative: Observation</b></p><div style="display: inline-block; background-color: #d9e0e7; padding: 6px; margin: 4px; border: 1px solid #8da1b4; border-radius: 5px; line-height: 60%"><p style="margin-bottom: 0px">Resource Observation "Covid19PatientOutcomeExample" </p><p style="margin-bottom: 0px">Profile: <a href="StructureDefinition-covid19-patient-outcome.html">Covid19 Patient Outcome</a></p></div><p><b>Covid19 Date Recovered</b>: 2022-07-28</p><p><b>Covid19 Date Recovered</b>: none</p><p><b>status</b>: final</p><p><b>code</b>: Comorbid condition <span style="background: LightGoldenRodYellow; margin: 4px; border: 1px solid khaki"> (<a href="https://loinc.org/">LOINC</a>#75618-9)</span></p><p><b>subject</b>: <a href="#Patient_Covid19PatientExample">See above (Patient/Covid19PatientExample)</a></p><p><b>encounter</b>: <a href="#Encounter_Covid19AssessmentEncounterExample">See above (Encounter/Covid19AssessmentEncounterExample)</a></p><p><b>value</b>: Recovered <span style="background: LightGoldenRodYellow; margin: 4px; border: 1px solid khaki"> ([not stated]#Recovered)</span></p><p><b>note</b>: patient recovered</p></div>
        </text>
        <extension url="http://example.com/fhir/example/StructureDefinition/covid19-date-recovered">
          <valueDateTime value="2022-07-28"/>
        </extension>
        <extension url="http://example.com/fhir/example/StructureDefinition/covid19-long-covid-description">
          <valueString value="none"/>
        </extension>
        <status value="final"/>
        <code>
          <coding>
            <system value="http://loinc.org"/>
            <code value="75618-9"/>
          </coding>
        </code>
        <subject>
          <reference value="Patient/Covid19PatientExample"/>
        </subject>
        <encounter>
          <reference value="Encounter/Covid19AssessmentEncounterExample"/>
        </encounter>
        <valueCodeableConcept>
          <coding>
            <code value="Recovered"/>
          </coding>
        </valueCodeableConcept>
        <note>
          <text value="patient recovered"/>
        </note>
      </Observation>
    </resource>
  </entry>
  <entry>
    <fullUrl value="Composition/Covid19LabOrderExample"/>
    <resource>
      <ServiceRequest>
        <id value="Covid19LabOrderExample"/>
        <meta>
          <profile value="http://example.com/fhir/example/StructureDefinition/covid19-lab-order"/>
        </meta>
        <text>
          <status value="extensions"/><div xmlns="http://www.w3.org/1999/xhtml"><p><b>Generated Narrative: ServiceRequest</b></p><div style="display: inline-block; background-color: #d9e0e7; padding: 6px; margin: 4px; border: 1px solid #8da1b4; border-radius: 5px; line-height: 60%"><p style="margin-bottom: 0px">Resource ServiceRequest "Covid19LabOrderExample" </p><p style="margin-bottom: 0px">Profile: <a href="StructureDefinition-covid19-lab-order.html">Covid19 Lab Order</a></p></div><p><b>Covid19 Test Requested</b>: Rapid <span style="background: LightGoldenRodYellow; margin: 4px; border: 1px solid khaki"> ([not stated]#Rapid)</span></p><p><b>status</b>: Pending</p><p><b>intent</b>: order</p><p><b>code</b>: Comorbid condition <span style="background: LightGoldenRodYellow; margin: 4px; border: 1px solid khaki"> (<a href="https://loinc.org/">LOINC</a>#75618-9)</span></p><p><b>subject</b>: <a href="#Patient_Covid19PatientExample">See above (Patient/Covid19PatientExample)</a></p><p><b>encounter</b>: <a href="#Encounter_Covid19AssessmentEncounterExample">See above (Encounter/Covid19AssessmentEncounterExample)</a></p><p><b>authoredOn</b>: 2022-07-28</p><p><b>reasonCode</b>: Surveillance <span style="background: LightGoldenRodYellow; margin: 4px; border: 1px solid khaki"> ([not stated]#Surveillance)</span></p></div>
        </text>
        <extension url="http://example.com/fhir/example/StructureDefinition/covid19-test-requested">
          <valueCodeableConcept>
            <coding>
              <code value="Rapid"/>
            </coding>
          </valueCodeableConcept>
        </extension>
        <status value="Pending"/>
        <intent value="order"/>
        <code>
          <coding>
            <system value="http://loinc.org"/>
            <code value="75618-9"/>
          </coding>
        </code>
        <subject>
          <reference value="Patient/Covid19PatientExample"/>
        </subject>
        <encounter>
          <reference value="Encounter/Covid19AssessmentEncounterExample"/>
        </encounter>
        <authoredOn value="2022-07-28"/>
        <reasonCode>
          <coding>
            <code value="Surveillance"/>
          </coding>
        </reasonCode>
      </ServiceRequest>
    </resource>
  </entry>
  <entry>
    <fullUrl value="Composition/Covid19SpecimenExample"/>
    <resource>
      <Specimen>
        <id value="Covid19SpecimenExample"/>
        <meta>
          <profile value="http://example.com/fhir/example/StructureDefinition/covid19-specimen"/>
        </meta>
        <text>
          <status value="generated"/><div xmlns="http://www.w3.org/1999/xhtml"><p><b>Generated Narrative: Specimen</b></p><div style="display: inline-block; background-color: #d9e0e7; padding: 6px; margin: 4px; border: 1px solid #8da1b4; border-radius: 5px; line-height: 60%"><p style="margin-bottom: 0px">Resource Specimen "Covid19SpecimenExample" </p><p style="margin-bottom: 0px">Profile: <a href="StructureDefinition-covid19-specimen.html">Covid19 Specimen</a></p></div><p><b>type</b>: Serum <span style="background: LightGoldenRodYellow; margin: 4px; border: 1px solid khaki"> ([not stated]#Serum)</span></p><h3>Collections</h3><table class="grid"><tr><td>-</td><td><b>Collected[x]</b></td></tr><tr><td>*</td><td>2022-07-28</td></tr></table></div>
        </text>
        <type>
          <coding>
            <code value="Serum"/>
          </coding>
        </type>
        <collection>
          <collectedDateTime value="2022-07-28"/>
        </collection>
      </Specimen>
    </resource>
  </entry>
  <entry>
    <fullUrl value="Composition/Covid19SpecimenCollectionExample"/>
    <resource>
      <DiagnosticReport>
        <id value="Covid19SpecimenCollectionExample"/>
        <meta>
          <profile value="http://example.com/fhir/example/StructureDefinition/covid19-specimen-collection"/>
        </meta>
        <text>
          <status value="extensions"/><div xmlns="http://www.w3.org/1999/xhtml"><p><b>Generated Narrative: DiagnosticReport</b></p><div style="display: inline-block; background-color: #d9e0e7; padding: 6px; margin: 4px; border: 1px solid #8da1b4; border-radius: 5px; line-height: 60%"><p style="margin-bottom: 0px">Resource DiagnosticReport "Covid19SpecimenCollectionExample" </p><p style="margin-bottom: 0px">Profile: <a href="StructureDefinition-covid19-specimen-collection.html">Covid19 Specimen Collection</a></p></div><p><b>Covid19 Specimen Forwarded</b>: Yes <span style="background: LightGoldenRodYellow; margin: 4px; border: 1px solid khaki"> ([not stated]#Yes)</span></p><p><b>Covid19 Reference Lab</b>: <a href="Organization-Covid19Laboratory.html">Organization/Covid19Laboratory</a></p><p><b>identifier</b>: id: ?ngen-9?</p><p><b>status</b>: final</p><p><b>code</b>: SARS-CoV-2 (COVID-19) variant [Type] in Specimen by NAA with probe detection <span style="background: LightGoldenRodYellow; margin: 4px; border: 1px solid khaki"> (<a href="https://loinc.org/">LOINC</a>#100156-9)</span></p><p><b>subject</b>: <a href="#Patient_Covid19PatientExample">See above (Patient/Covid19PatientExample)</a></p><p><b>encounter</b>: <a href="#Encounter_Covid19AssessmentEncounterExample">See above (Encounter/Covid19AssessmentEncounterExample)</a></p><p><b>specimen</b>: <a href="#Specimen_Covid19SpecimenExample">See above (Specimen/Covid19SpecimenExample)</a></p></div>
        </text>
        <extension url="http://example.com/fhir/example/StructureDefinition/covid19-specimen-forwarded">
          <valueCodeableConcept>
            <coding>
              <code value="Yes"/>
            </coding>
          </valueCodeableConcept>
        </extension>
        <extension url="http://example.com/fhir/example/StructureDefinition/covid-19reference-lab">
          <valueReference>
            <reference value="Organization/Covid19Laboratory"/>
          </valueReference>
        </extension>
        <identifier id="12341324"/>
        <status value="final"/>
        <code>
          <coding>
            <system value="http://loinc.org"/>
            <code value="100156-9"/>
          </coding>
        </code>
        <subject>
          <reference value="Patient/Covid19PatientExample"/>
        </subject>
        <encounter>
          <reference value="Encounter/Covid19AssessmentEncounterExample"/>
        </encounter>
        <specimen>
          <reference value="Specimen/Covid19SpecimenExample"/>
        </specimen>
      </DiagnosticReport>
    </resource>
  </entry>
  <entry>
    <fullUrl value="Composition/Covid19LabOrderCancellationExample"/>
    <resource>
      <Task>
        <id value="Covid19LabOrderCancellationExample"/>
        <meta>
          <profile value="http://example.com/fhir/example/StructureDefinition/covid19-lab-order-cancellation"/>
        </meta>
        <text>
          <status value="generated"/><div xmlns="http://www.w3.org/1999/xhtml"><p><b>Generated Narrative: Task</b></p><div style="display: inline-block; background-color: #d9e0e7; padding: 6px; margin: 4px; border: 1px solid #8da1b4; border-radius: 5px; line-height: 60%"><p style="margin-bottom: 0px">Resource Task "Covid19LabOrderCancellationExample" </p><p style="margin-bottom: 0px">Profile: <a href="StructureDefinition-covid19-lab-order-cancellation.html">Covid19 Lab Order Cancellation</a></p></div><p><b>status</b>: requested</p><p><b>intent</b>: order</p><p><b>focus</b>: <a href="#ServiceRequest_Covid19LabOrderExample">See above (ServiceRequest/Covid19LabOrderExample)</a></p><p><b>for</b>: <a href="#Patient_Covid19PatientExample">See above (Patient/Covid19PatientExample)</a></p><p><b>encounter</b>: <a href="#Encounter_Covid19AssessmentEncounterExample">See above (Encounter/Covid19AssessmentEncounterExample)</a></p><p><b>authoredOn</b>: 2022-07-28</p><p><b>reasonCode</b>: Duplicate <span style="background: LightGoldenRodYellow; margin: 4px; border: 1px solid khaki"> ([not stated]#Duplicate)</span></p></div>
        </text>
        <status value="requested"/>
        <intent value="order"/>
        <focus>
          <reference value="ServiceRequest/Covid19LabOrderExample"/>
        </focus>
        <for>
          <reference value="Patient/Covid19PatientExample"/>
        </for>
        <encounter>
          <reference value="Encounter/Covid19AssessmentEncounterExample"/>
        </encounter>
        <authoredOn value="2022-07-28"/>
        <reasonCode>
          <coding>
            <code value="Duplicate"/>
          </coding>
        </reasonCode>
      </Task>
    </resource>
  </entry>
  <entry>
    <fullUrl value="Composition/Covid19LabResultsExample"/>
    <resource>
      <DiagnosticReport>
        <id value="Covid19LabResultsExample"/>
        <meta>
          <profile value="http://example.com/fhir/example/StructureDefinition/covid19-lab-results"/>
        </meta>
        <text>
          <status value="extensions"/><div xmlns="http://www.w3.org/1999/xhtml"><p><b>Generated Narrative: DiagnosticReport</b></p><div style="display: inline-block; background-color: #d9e0e7; padding: 6px; margin: 4px; border: 1px solid #8da1b4; border-radius: 5px; line-height: 60%"><p style="margin-bottom: 0px">Resource DiagnosticReport "Covid19LabResultsExample" </p><p style="margin-bottom: 0px">Profile: <a href="StructureDefinition-covid19-lab-results.html">Covid19 Lab Results</a></p></div><p><b>Covid19 Test Completed</b>: Yes <span style="background: LightGoldenRodYellow; margin: 4px; border: 1px solid khaki"> ([not stated]#Yes)</span></p><p><b>Covid19 Reason Test not performed</b>: Other <span style="background: LightGoldenRodYellow; margin: 4px; border: 1px solid khaki"> ([not stated]#Other)</span></p><p><b>identifier</b>: id: ?ngen-9?</p><p><b>status</b>: final</p><p><b>code</b>: SARS-CoV-2 (COVID-19) variant [Type] in Specimen by NAA with probe detection <span style="background: LightGoldenRodYellow; margin: 4px; border: 1px solid khaki"> (<a href="https://loinc.org/">LOINC</a>#100156-9)</span></p><p><b>subject</b>: <a href="#Patient_Covid19PatientExample">See above (Patient/Covid19PatientExample)</a></p><p><b>encounter</b>: <a href="#Encounter_Covid19AssessmentEncounterExample">See above (Encounter/Covid19AssessmentEncounterExample)</a></p><p><b>effective</b>: 2022-07-28</p><p><b>conclusionCode</b>: Positive <span style="background: LightGoldenRodYellow; margin: 4px; border: 1px solid khaki"> ([not stated]#Positive)</span></p></div>
        </text>
        <extension url="http://example.com/fhir/example/StructureDefinition/covid19-test-completed">
          <valueCodeableConcept>
            <coding>
              <code value="Yes"/>
            </coding>
          </valueCodeableConcept>
        </extension>
        <extension url="http://example.com/fhir/example/StructureDefinition/covid19-reason-test-not-performed">
          <valueCodeableConcept>
            <coding>
              <code value="Other"/>
            </coding>
          </valueCodeableConcept>
        </extension>
        <identifier id="12341324"/>
        <status value="final"/>
        <code>
          <coding>
            <system value="http://loinc.org"/>
            <code value="100156-9"/>
          </coding>
        </code>
        <subject>
          <reference value="Patient/Covid19PatientExample"/>
        </subject>
        <encounter>
          <reference value="Encounter/Covid19AssessmentEncounterExample"/>
        </encounter>
        <effectiveDateTime value="2022-07-28"/>
        <conclusionCode>
          <coding>
            <code value="Positive"/>
          </coding>
        </conclusionCode>
      </DiagnosticReport>
    </resource>
  </entry>
  <entry>
    <fullUrl value="Composition/Covid19VaccinationExample"/>
    <resource>
      <Immunization>
        <id value="Covid19VaccinationExample"/>
        <meta>
          <profile value="http://example.com/fhir/example/StructureDefinition/covid19-vaccination"/>
        </meta>
        <text>
          <status value="extensions"/><div xmlns="http://www.w3.org/1999/xhtml"><p><b>Generated Narrative: Immunization</b></p><div style="display: inline-block; background-color: #d9e0e7; padding: 6px; margin: 4px; border: 1px solid #8da1b4; border-radius: 5px; line-height: 60%"><p style="margin-bottom: 0px">Resource Immunization "Covid19VaccinationExample" </p><p style="margin-bottom: 0px">Profile: <a href="StructureDefinition-covid19-vaccination.html">Covid19 Vaccination</a></p></div><p><b>Covid19 Date of next vaccination</b>: 2022-12-28</p><p><b>Covid19 Other vaccine</b>: n/a</p><p><b>status</b>: final</p><p><b>vaccineCode</b>: Astrazeneca <span style="background: LightGoldenRodYellow; margin: 4px; border: 1px solid khaki"> ([not stated]#Astrazeneca)</span></p><p><b>patient</b>: <a href="#Patient_Covid19PatientExample">See above (Patient/Covid19PatientExample)</a></p><p><b>occurrence</b>: 2022-07-28</p><p><b>lotNumber</b>: 1</p><p><b>expirationDate</b>: 2022-12-28</p><h3>ProtocolApplieds</h3><table class="grid"><tr><td>-</td><td><b>Extension</b></td><td><b>DoseNumber[x]</b></td></tr><tr><td>*</td><td></td><td>1</td></tr></table></div>
        </text>
        <extension url="http://example.com/fhir/example/StructureDefinition/covid19-next-vaccination-date">
          <valueDate value="2022-12-28"/>
        </extension>
        <extension url="http://example.com/fhir/example/StructureDefinition/covid19-other-vaccine">
          <valueString value="n/a"/>
        </extension>
        <status value="final"/>
        <vaccineCode>
          <coding>
            <code value="Astrazeneca"/>
          </coding>
        </vaccineCode>
        <patient>
          <reference value="Patient/Covid19PatientExample"/>
        </patient>
        <occurrenceDateTime value="2022-07-28"/>
        <lotNumber value="1"/>
        <expirationDate value="2022-12-28"/>
        <protocolApplied>
          <extension url="http://example.com/fhir/example/StructureDefinition/covid19-vaccine-series">
            <valueCodeableConcept>
              <coding>
                <code value="Booster"/>
              </coding>
            </valueCodeableConcept>
          </extension>
          <doseNumberPositiveInt value="1"/>
        </protocolApplied>
      </Immunization>
    </resource>
  </entry>
</Bundle>