<?xml version="1.0" encoding="UTF-8"?>

<Bundle xmlns="http://hl7.org/fhir">
  <id value="CaresBundleExample"/>
  <type value="transaction"/>
  <entry>
    <fullUrl value="Patient/Covid19PatientExample"/>
    <resource>
      <Patient>
        <id value="Covid19PatientExample"/>
        <meta>
          <profile value="http://openhie.org/fhir/covid19-casereporting/StructureDefinition/covid19-patient"/>
        </meta>
        <text>
          <status value="generated"/><div xmlns="http://www.w3.org/1999/xhtml"><p><b>Generated Narrative: Patient</b><a name="Covid19PatientExample"> </a></p><div style="display: inline-block; background-color: #d9e0e7; padding: 6px; margin: 4px; border: 1px solid #8da1b4; border-radius: 5px; line-height: 60%"><p style="margin-bottom: 0px">Resource Patient "Covid19PatientExample" </p><p style="margin-bottom: 0px">Profile: <a href="StructureDefinition-covid19-patient.html">Covid19 Patient</a></p></div><p><b>identifier</b>: id: PASSPORT1234567, id: NAT1234567, id: EMR1234567</p><p><b>active</b>: true</p><p><b>name</b>: Jane Smith (OFFICIAL)</p><p><b>telecom</b>: <a href="tel:+27825556666">+27825556666</a></p><p><b>gender</b>: female</p><p><b>birthDate</b>: 1986-06-04</p><p><b>address</b>: Cape Town Western Province South Africa </p><p><b>maritalStatus</b>: Divorced <span style="background: LightGoldenRodYellow; margin: 4px; border: 1px solid khaki"> (<a href="http://terminology.hl7.org/4.0.0/CodeSystem-v3-MaritalStatus.html">MaritalStatus</a>#D)</span></p><h3>Contacts</h3><table class="grid"><tr><td>-</td><td><b>Relationship</b></td><td><b>Name</b></td><td><b>Telecom</b></td></tr><tr><td>*</td><td>Next-of-Kin <span style="background: LightGoldenRodYellow; margin: 4px; border: 1px solid khaki"> (<a href="http://terminology.hl7.org/4.0.0/CodeSystem-v2-0131.html">contactRole2</a>#N)</span></td><td>John </td><td><a href="tel:+27825556667">+27825556667</a></td></tr></table><p><b>managingOrganization</b>: <a href="Organization-Covid19OrganizationExample.html">Organization/Covid19OrganizationExample</a> "Covid19 Organization"</p></div>
        </text>
        <identifier>
          <system value="http://openhie.org/fhir/covid19-casereporting/identifier/passport"/>
          <value value="PASSPORT1234567"/>
        </identifier>
        <identifier>
          <system value="http://openhie.org/fhir/covid19-casereporting/identifier/nid"/>
          <value value="NAT1234567"/>
        </identifier>
        <identifier>
          <system value="http://openhie.org/fhir/covid19-casereporting/identifier/facility"/>
          <value value="EMR1234567"/>
        </identifier>
        <active value="true"/>
        <name>
          <use value="official"/>
          <family value="Smith"/>
          <given value="Jane"/>
        </name>
        <telecom>
          <system value="phone"/>
          <value value="+27825556666"/>
        </telecom>
        <gender value="female"/>
        <birthDate value="1986-06-04"/>
        <address>
          <city value="Cape Town"/>
          <district value="City of Cape Town"/>
          <state value="Western Province"/>
          <country value="South Africa"/>
        </address>
        <maritalStatus>
          <coding>
            <system value="http://terminology.hl7.org/CodeSystem/v3-MaritalStatus"/>
            <code value="D"/>
          </coding>
        </maritalStatus>
        <contact>
          <relationship>
            <coding>
              <system value="http://terminology.hl7.org/CodeSystem/v2-0131"/>
              <code value="N"/>
            </coding>
          </relationship>
          <name>
            <family value="John"/>
          </name>
          <telecom>
            <system value="phone"/>
            <value value="+27825556667"/>
          </telecom>
        </contact>
        <managingOrganization>
          <reference value="Organization/Covid19OrganizationExample"/>
        </managingOrganization>
      </Patient>
    </resource>
    <request>
      <method value="PUT"/>
      <url value="Patient/Covid19PatientExample"/>
    </request>
  </entry>
  <entry>
    <fullUrl value="Encounter/Covid19AssessmentEncounterExample"/>
    <resource>
      <Encounter>
        <id value="Covid19AssessmentEncounterExample"/>
        <meta>
          <profile value="http://openhie.org/fhir/covid19-casereporting/StructureDefinition/covid19-encounter"/>
        </meta>
        <text>
          <status value="extensions"/><div xmlns="http://www.w3.org/1999/xhtml"><p><b>Generated Narrative: Encounter</b><a name="Covid19AssessmentEncounterExample"> </a></p><div style="display: inline-block; background-color: #d9e0e7; padding: 6px; margin: 4px; border: 1px solid #8da1b4; border-radius: 5px; line-height: 60%"><p style="margin-bottom: 0px">Resource Encounter "Covid19AssessmentEncounterExample" </p><p style="margin-bottom: 0px">Profile: <a href="StructureDefinition-covid19-encounter.html">Covid19 Assessment Encounter</a></p></div><p><b>Covid19 date of next vaccination</b>: 2022-07-28</p><p><b>status</b>: finished</p><p><b>class</b>: short stay (Details: http://terminology.hl7.org/CodeSystem/v3-ActCode code SS = 'short stay', stated as 'null')</p><p><b>subject</b>: <a href="#Patient_Covid19PatientExample">See above (Patient/Covid19PatientExample)</a></p><p><b>period</b>: 2022-07-28 --&gt; 2022-08-15</p><p><b>reasonCode</b>: Person exposed to disease (person) <span style="background: LightGoldenRodYellow; margin: 4px; border: 1px solid khaki"> (<a href="https://browser.ihtsdotools.org/">SNOMED CT</a>#428792000)</span></p></div>
        </text>
        <extension url="http://openhie.org/fhir/covid19-casereporting/StructureDefinition/next-visit">
          <valueDateTime value="2022-07-28"/>
        </extension>
        <status value="finished"/>
        <class>
          <system value="http://terminology.hl7.org/CodeSystem/v3-ActCode"/>
          <code value="SS"/>
        </class>
        <subject>
          <reference value="Patient/Covid19PatientExample"/>
        </subject>
        <period>
          <start value="2022-07-28"/>
          <end value="2022-08-15"/>
        </period>
        <reasonCode>
          <coding>
            <system value="http://snomed.info/sct"/>
            <code value="428792000"/>
          </coding>
        </reasonCode>
      </Encounter>
    </resource>
    <request>
      <method value="PUT"/>
      <url value="Encounter/Covid19AssessmentEncounterExample"/>
    </request>
  </entry>
  <entry>
    <fullUrl value="Condition/Covid19DiagnosisExample"/>
    <resource>
      <Condition>
        <id value="Covid19DiagnosisExample"/>
        <meta>
          <profile value="http://openhie.org/fhir/covid19-casereporting/StructureDefinition/covid19-diagnosis"/>
        </meta>
        <text>
          <status value="generated"/><div xmlns="http://www.w3.org/1999/xhtml"><p><b>Generated Narrative: Condition</b><a name="Covid19DiagnosisExample"> </a></p><div style="display: inline-block; background-color: #d9e0e7; padding: 6px; margin: 4px; border: 1px solid #8da1b4; border-radius: 5px; line-height: 60%"><p style="margin-bottom: 0px">Resource Condition "Covid19DiagnosisExample" </p><p style="margin-bottom: 0px">Profile: <a href="StructureDefinition-covid19-diagnosis.html">Covid19 Diagnosis</a></p></div><p><b>clinicalStatus</b>: Patient condition resolved (finding) <span style="background: LightGoldenRodYellow; margin: 4px; border: 1px solid khaki"> (<a href="https://browser.ihtsdotools.org/">SNOMED CT</a>#370996005)</span></p><p><b>verificationStatus</b>: Confirmed present (qualifier value) <span style="background: LightGoldenRodYellow; margin: 4px; border: 1px solid khaki"> (<a href="https://browser.ihtsdotools.org/">SNOMED CT</a>#410605003)</span></p><p><b>subject</b>: <a href="#Patient_Covid19PatientExample">See above (Patient/Covid19PatientExample)</a></p><p><b>encounter</b>: <a href="#Encounter_Covid19AssessmentEncounterExample">See above (Encounter/Covid19AssessmentEncounterExample)</a></p><p><b>onset</b>: 2022-07-28</p><p><b>recordedDate</b>: 2022-07-28</p><h3>Evidences</h3><table class="grid"><tr><td>-</td><td><b>Code</b></td></tr><tr><td>*</td><td>Asymptomatic <span style="background: LightGoldenRodYellow; margin: 4px; border: 1px solid khaki"> (<a href="https://browser.ihtsdotools.org/">SNOMED CT</a>#84387000)</span></td></tr></table></div>
        </text>
        <clinicalStatus>
          <coding>
            <system value="http://snomed.info/sct"/>
            <code value="370996005"/>
          </coding>
        </clinicalStatus>
        <verificationStatus>
          <coding>
            <system value="http://snomed.info/sct"/>
            <code value="410605003"/>
          </coding>
        </verificationStatus>
        <subject>
          <reference value="Patient/Covid19PatientExample"/>
        </subject>
        <encounter>
          <reference value="Encounter/Covid19AssessmentEncounterExample"/>
        </encounter>
        <onsetDateTime value="2022-07-28"/>
        <recordedDate value="2022-07-28"/>
        <evidence>
          <code>
            <coding>
              <system value="http://snomed.info/sct"/>
              <code value="84387000"/>
            </coding>
          </code>
        </evidence>
      </Condition>
    </resource>
    <request>
      <method value="PUT"/>
      <url value="Condition/Covid19DiagnosisExample"/>
    </request>
  </entry>
  <entry>
    <fullUrl value="Immunization/Covid19AssessmentVaccinationExample"/>
    <resource>
      <Immunization>
        <id value="Covid19AssessmentVaccinationExample"/>
        <meta>
          <profile value="http://openhie.org/fhir/covid19-casereporting/StructureDefinition/covid19-assessment-vaccination"/>
        </meta>
        <text>
          <status value="generated"/><div xmlns="http://www.w3.org/1999/xhtml"><p><b>Generated Narrative: Immunization</b><a name="Covid19AssessmentVaccinationExample"> </a></p><div style="display: inline-block; background-color: #d9e0e7; padding: 6px; margin: 4px; border: 1px solid #8da1b4; border-radius: 5px; line-height: 60%"><p style="margin-bottom: 0px">Resource Immunization "Covid19AssessmentVaccinationExample" </p><p style="margin-bottom: 0px">Profile: <a href="StructureDefinition-covid19-assessment-vaccination.html">Covid19 Vaccination info included as part of the Assessment</a></p></div><p><b>status</b>: completed</p><p><b>vaccineCode</b>: XM8NQ0 <span style="background: LightGoldenRodYellow; margin: 4px; border: 1px solid khaki"> (mms#XM8NQ0)</span></p><p><b>patient</b>: <a href="#Patient_Covid19PatientExample">See above (Patient/Covid19PatientExample)</a></p><p><b>encounter</b>: <a href="#Encounter_Covid19AssessmentEncounterExample">See above (Encounter/Covid19AssessmentEncounterExample)</a></p><p><b>occurrence</b>: 2022-07-28</p><p><b>reportOrigin</b>: Vaccine Card <span style="background: LightGoldenRodYellow; margin: 4px; border: 1px solid khaki"> (<a href="CodeSystem-cs-source-of-info.html">Source of information - codes</a>#VaccineCard)</span></p><h3>ProtocolApplieds</h3><table class="grid"><tr><td>-</td><td><b>Series</b></td><td><b>DoseNumber[x]</b></td></tr><tr><td>*</td><td>Booster</td><td>1</td></tr></table></div>
        </text>
        <status value="completed"/>
        <vaccineCode>
          <coding>
            <system value="http://id.who.int/icd11/mms"/>
            <code value="XM8NQ0"/>
          </coding>
        </vaccineCode>
        <patient>
          <reference value="Patient/Covid19PatientExample"/>
        </patient>
        <encounter>
          <reference value="Encounter/Covid19AssessmentEncounterExample"/>
        </encounter>
        <occurrenceDateTime value="2022-07-28"/>
        <reportOrigin>
          <coding>
            <system value="http://openhie.org/fhir/covid19-casereporting/CodeSystem/cs-source-of-info"/>
            <code value="VaccineCard"/>
          </coding>
        </reportOrigin>
        <protocolApplied>
          <series value="Booster"/>
          <doseNumberPositiveInt value="1"/>
        </protocolApplied>
      </Immunization>
    </resource>
    <request>
      <method value="PUT"/>
      <url value="Immunization/Covid19AssessmentVaccinationExample"/>
    </request>
  </entry>
  <entry>
    <fullUrl value="Immunization/Covid19VaccinationExample"/>
    <resource>
      <Immunization>
        <id value="Covid19VaccinationExample"/>
        <meta>
          <profile value="http://openhie.org/fhir/covid19-casereporting/StructureDefinition/covid19-vaccination"/>
        </meta>
        <text>
          <status value="generated"/><div xmlns="http://www.w3.org/1999/xhtml"><p><b>Generated Narrative: Immunization</b><a name="Covid19VaccinationExample"> </a></p><div style="display: inline-block; background-color: #d9e0e7; padding: 6px; margin: 4px; border: 1px solid #8da1b4; border-radius: 5px; line-height: 60%"><p style="margin-bottom: 0px">Resource Immunization "Covid19VaccinationExample" </p><p style="margin-bottom: 0px">Profile: <a href="StructureDefinition-covid19-vaccination.html">Covid19 Vaccination</a></p></div><p><b>status</b>: completed</p><p><b>vaccineCode</b>: XM4YL8 <span style="background: LightGoldenRodYellow; margin: 4px; border: 1px solid khaki"> (mms#XM4YL8)</span></p><p><b>patient</b>: <a href="#Patient_Covid19PatientExample">See above (Patient/Covid19PatientExample)</a></p><p><b>encounter</b>: <a href="#Encounter_Covid19AssessmentEncounterExample">See above (Encounter/Covid19AssessmentEncounterExample)</a></p><p><b>occurrence</b>: 2022-07-28</p><p><b>reportOrigin</b>: Vaccine Card <span style="background: LightGoldenRodYellow; margin: 4px; border: 1px solid khaki"> (<a href="CodeSystem-cs-source-of-info.html">Source of information - codes</a>#VaccineCard)</span></p><p><b>lotNumber</b>: 1</p><p><b>expirationDate</b>: 2022-12-28</p><h3>ProtocolApplieds</h3><table class="grid"><tr><td>-</td><td><b>Series</b></td><td><b>DoseNumber[x]</b></td></tr><tr><td>*</td><td>Booster</td><td>1</td></tr></table></div>
        </text>
        <status value="completed"/>
        <vaccineCode>
          <coding>
            <system value="http://id.who.int/icd11/mms"/>
            <code value="XM4YL8"/>
          </coding>
        </vaccineCode>
        <patient>
          <reference value="Patient/Covid19PatientExample"/>
        </patient>
        <encounter>
          <reference value="Encounter/Covid19AssessmentEncounterExample"/>
        </encounter>
        <occurrenceDateTime value="2022-07-28"/>
        <reportOrigin>
          <coding>
            <system value="http://openhie.org/fhir/covid19-casereporting/CodeSystem/cs-source-of-info"/>
            <code value="VaccineCard"/>
          </coding>
        </reportOrigin>
        <lotNumber value="1"/>
        <expirationDate value="2022-12-28"/>
        <protocolApplied>
          <series value="Booster"/>
          <doseNumberPositiveInt value="1"/>
        </protocolApplied>
      </Immunization>
    </resource>
    <request>
      <method value="PUT"/>
      <url value="Immunization/Covid19VaccinationExample"/>
    </request>
  </entry>
</Bundle>